trials.thisRepN,trials.thisTrialN,trials.thisN,trials.thisIndex,num_distr,fixation.started,target.started,mouse.started,mouse.x,mouse.y,mouse.leftButton,mouse.midButton,mouse.rightButton,mouse.time,mouse.clicked_name,participant,session,date,expName,psychopyVersion,frameRate,
0,0,0,0,10,13.504428399959579,13.504428399959579,0.03228139993734658,[0.2890625],[-0.15234375],[1],[0],[0],[1.4733334998600185],['target'],835976,001,2022-09-16_07h55.53.756,visual search experiment,2022.2.2,60.03928970281507,
1,0,1,0,5,14.991186500061303,14.991186500061303,0.01690550008788705,[-0.3619791666666667],[0.4700520833333333],[1],[0],[0],[1.4397061001509428],['target'],835976,001,2022-09-16_07h55.53.756,visual search experiment,2022.2.2,60.03928970281507,
2,0,2,0,5,16.472679199883714,16.472679199883714,0.030157499946653843,[-0.3424479166666667],[0.0234375],[1],[0],[0],[1.3471157997846603],['target'],835976,001,2022-09-16_07h55.53.756,visual search experiment,2022.2.2,60.03928970281507,
3,0,3,0,10,17.870206899940968,17.870206899940968,0.0452910999301821,[0.4661458333333333],[0.3671875],[1],[0],[0],[2.2154478000011295],[],835976,001,2022-09-16_07h55.53.756,visual search experiment,2022.2.2,60.03928970281507,
4,0,4,0,10,20.13142929994501,20.13142929994501,0.042359899962320924,[-0.022135416666666668],[-0.3072916666666667],[1],[0],[0],[1.4725617999210954],['target'],835976,001,2022-09-16_07h55.53.756,visual search experiment,2022.2.2,60.03928970281507,
5,0,5,0,10,21.6512805998791,21.6512805998791,0.039903700118884444,[0.23177083333333334],[-0.4544270833333333],[1],[0],[0],[1.7012287999968976],['target'],835976,001,2022-09-16_07h55.53.756,visual search experiment,2022.2.2,60.03928970281507,
6,0,6,0,5,23.365760299842805,23.365760299842805,0.014685700181871653,[-0.15755208333333334],[-0.1953125],[1],[0],[0],[1.0483626001514494],[],835976,001,2022-09-16_07h55.53.756,visual search experiment,2022.2.2,60.03928970281507,
7,0,7,0,5,24.44855639990419,24.44855639990419,0.027210700092837214,[0.38671875],[-0.14453125],[1],[0],[0],[1.250240599969402],['target'],835976,001,2022-09-16_07h55.53.756,visual search experiment,2022.2.2,60.03928970281507,
8,0,8,0,5,25.732292499858886,25.732292499858886,0.02776960004121065,[0.1953125],[-0.006510416666666667],[1],[0],[0],[1.08335530012846],['target'],835976,001,2022-09-16_07h55.53.756,visual search experiment,2022.2.2,60.03928970281507,
9,0,9,0,5,26.843327099923044,26.843327099923044,0.022659899899736047,[-0.19401041666666666],[0.4114583333333333],[1],[0],[0],[1.3877306000795215],['target'],835976,001,2022-09-16_07h55.53.756,visual search experiment,2022.2.2,60.03928970281507,
10,0,10,0,5,28.27000380004756,28.27000380004756,0.029675700003281236,[0.4231770833333333],[0.2513020833333333],[1],[0],[0],[1.1480482001788914],['target'],835976,001,2022-09-16_07h55.53.756,visual search experiment,2022.2.2,60.03928970281507,
11,0,11,0,10,29.468331099953502,29.468331099953502,0.04435520013794303,[0.03515625],[0.029947916666666668],[1],[0],[0],[1.1329968001227826],['target'],835976,001,2022-09-16_07h55.53.756,visual search experiment,2022.2.2,60.03928970281507,
12,0,12,0,5,30.618874500039965,30.618874500039965,0.01717019989155233,[-0.16796875],[-0.4401041666666667],[1],[0],[0],[1.512828900013119],[],835976,001,2022-09-16_07h55.53.756,visual search experiment,2022.2.2,60.03928970281507,
13,0,13,0,5,32.164778399979696,32.164778399979696,0.026920099975541234,[0.2513020833333333],[0.15885416666666666],[1],[0],[0],[0.8998477000277489],['target'],835976,001,2022-09-16_07h55.53.756,visual search experiment,2022.2.2,60.03928970281507,
14,0,14,0,10,33.120212599867955,33.120212599867955,0.04662499995902181,[0.3463541666666667],[0.18619791666666666],[1],[0],[0],[0.9495735999662429],['target'],835976,001,2022-09-16_07h55.53.756,visual search experiment,2022.2.2,60.03928970281507,
15,0,15,0,5,34.093783600023016,34.093783600023016,0.02156670019030571,[-0.046875],[-0.18880208333333334],[1],[0],[0],[1.1712499000132084],['target'],835976,001,2022-09-16_07h55.53.756,visual search experiment,2022.2.2,60.03928970281507,
16,0,16,0,10,35.31107369996607,35.31107369996607,0.036577000049874187,[-0.18359375],[0.3684895833333333],[1],[0],[0],[1.398016900056973],['target'],835976,001,2022-09-16_07h55.53.756,visual search experiment,2022.2.2,60.03928970281507,
17,0,17,0,10,36.742252399912104,36.742252399912104,0.028460799949243665,[0.2591145833333333],[0.037760416666666664],[1],[0],[0],[1.2506512000691146],[],835976,001,2022-09-16_07h55.53.756,visual search experiment,2022.2.2,60.03928970281507,
18,0,18,0,5,38.021136299939826,38.021136299939826,0.026126899989321828,[-0.17578125],[0.23307291666666666],[1],[0],[0],[1.0772309000603855],[],835976,001,2022-09-16_07h55.53.756,visual search experiment,2022.2.2,60.03928970281507,
19,0,19,0,10,39.14887259993702,39.14887259993702,0.041396900080144405,[-0.02734375],[-0.24869791666666666],[1],[0],[0],[1.2859283001162112],[],835976,001,2022-09-16_07h55.53.756,visual search experiment,2022.2.2,60.03928970281507,
20,0,20,0,5,40.44799149991013,40.44799149991013,0.014579399954527617,[-0.009114583333333334],[-0.057291666666666664],[1],[0],[0],[1.1663781001698226],['target'],835976,001,2022-09-16_07h55.53.756,visual search experiment,2022.2.2,60.03928970281507,
21,0,21,0,5,41.64733079983853,41.64733079983853,0.026127600111067295,[0.03125],[0.24348958333333334],[1],[0],[0],[1.0506950002163649],[],835976,001,2022-09-16_07h55.53.756,visual search experiment,2022.2.2,60.03928970281507,
22,0,22,0,5,42.717734599951655,42.717734599951655,0.0165712998714298,[-0.18229166666666666],[-0.3997395833333333],[1],[0],[0],[1.6466951000038534],['target'],835976,001,2022-09-16_07h55.53.756,visual search experiment,2022.2.2,60.03928970281507,
23,0,23,0,10,44.40873520006426,44.40873520006426,0.034385599894449115,[-0.2643229166666667],[0.040364583333333336],[1],[0],[0],[1.2981822001747787],['target'],835976,001,2022-09-16_07h55.53.756,visual search experiment,2022.2.2,60.03928970281507,
24,0,24,0,5,45.741486500017345,45.741486500017345,0.029000600101426244,[0.4557291666666667],[-0.4309895833333333],[1],[0],[0],[1.7274774999823421],[],835976,001,2022-09-16_07h55.53.756,visual search experiment,2022.2.2,60.03928970281507,
25,0,25,0,10,47.50164330005646,47.50164330005646,0.028589699883013964,[-0.3932291666666667],[0.3606770833333333],[1],[0],[0],[1.3683686999138445],['target'],835976,001,2022-09-16_07h55.53.756,visual search experiment,2022.2.2,60.03928970281507,
26,0,26,0,10,48.91252309991978,48.91252309991978,0.03716750000603497,[0.3255208333333333],[-0.4908854166666667],[1],[0],[0],[1.722366699948907],['target'],835976,001,2022-09-16_07h55.53.756,visual search experiment,2022.2.2,60.03928970281507,
27,0,27,0,10,50.67452270002104,50.67452270002104,0.036271800054237247,[0.01171875],[0.16536458333333334],[1],[0],[0],[1.2627570000477135],['target'],835976,001,2022-09-16_07h55.53.756,visual search experiment,2022.2.2,60.03928970281507,
28,0,28,0,5,51.96180629986338,51.96180629986338,0.02107170014642179,[-0.1875],[-0.21223958333333334],[1],[0],[0],[0.9530625999905169],['target'],835976,001,2022-09-16_07h55.53.756,visual search experiment,2022.2.2,60.03928970281507,
29,0,29,0,5,52.96006809989922,52.96006809989922,0.03278760006651282,[-0.18619791666666666],[-0.21354166666666666],[1],[0],[0],[0.3608017999213189],[],835976,001,2022-09-16_07h55.53.756,visual search experiment,2022.2.2,60.03928970281507,
30,0,30,0,5,53.34968660003506,53.34968660003506,0.028105600038543344,[0.00390625],[-0.11328125],[1],[0],[0],[1.999284700024873],[],835976,001,2022-09-16_07h55.53.756,visual search experiment,2022.2.2,60.03928970281507,
31,0,31,0,10,55.39627359993756,55.39627359993756,0.03889790014363825,[0.00390625],[-0.11328125],[1],[0],[0],[0.7906994000077248],[],835976,001,2022-09-16_07h55.53.756,visual search experiment,2022.2.2,60.03928970281507,
32,0,32,0,5,56.19913139985874,56.19913139985874,0.013313599862158298,[0.08463541666666667],[0.3880208333333333],[1],[0],[0],[1.3152103000320494],['target'],835976,001,2022-09-16_07h55.53.756,visual search experiment,2022.2.2,60.03928970281507,
33,0,33,0,10,57.56091669993475,57.56091669993475,0.03725620009936392,[-0.4075520833333333],[0.19921875],[1],[0],[0],[1.126969699980691],[],835976,001,2022-09-16_07h55.53.756,visual search experiment,2022.2.2,60.03928970281507,
34,0,34,0,5,58.70883230003528,58.70883230003528,0.018800399964675307,[-0.34765625],[-0.11588541666666667],[1],[0],[0],[0.938706399872899],[],835976,001,2022-09-16_07h55.53.756,visual search experiment,2022.2.2,60.03928970281507,
35,0,35,0,10,59.70730459992774,59.70730459992774,0.046994199976325035,[-0.01953125],[-0.4596354166666667],[1],[0],[0],[1.1805259000975639],['target'],835976,001,2022-09-16_07h55.53.756,visual search experiment,2022.2.2,60.03928970281507,
36,0,36,0,10,60.94075539987534,60.94075539987534,0.04505069996230304,[-0.04296875],[-0.08984375],[1],[0],[0],[2.0493284000549465],[],835976,001,2022-09-16_07h55.53.756,visual search experiment,2022.2.2,60.03928970281507,
37,0,37,0,5,62.99963860004209,62.99963860004209,0.015439899871125817,[0.053385416666666664],[-0.2109375],[1],[0],[0],[0.8988045998848975],[],835976,001,2022-09-16_07h55.53.756,visual search experiment,2022.2.2,60.03928970281507,
38,0,38,0,5,63.92868159990758,63.92868159990758,0.02432039985433221,[0.053385416666666664],[-0.2109375],[1],[0],[0],[0.8027141001075506],[],835976,001,2022-09-16_07h55.53.756,visual search experiment,2022.2.2,60.03928970281507,
39,0,39,0,5,64.76043180003762,64.76043180003762,0.02336329990066588,[-0.45703125],[-0.03515625],[1],[0],[0],[1.138378599891439],[],835976,001,2022-09-16_07h55.53.756,visual search experiment,2022.2.2,60.03928970281507,
40,0,40,0,10,65.95761250006035,65.95761250006035,0.0452949998434633,[-0.37890625],[0.3372395833333333],[1],[0],[0],[1.1156850999686867],['target'],835976,001,2022-09-16_07h55.53.756,visual search experiment,2022.2.2,60.03928970281507,
41,0,41,0,10,67.10564319998957,67.10564319998957,0.02982340008020401,[0.3893229166666667],[-0.4036458333333333],[1],[0],[0],[1.895948400022462],[],835976,001,2022-09-16_07h55.53.756,visual search experiment,2022.2.2,60.03928970281507,
42,0,42,0,10,69.03419669996947,69.03419669996947,0.028173299971967936,[0.23567708333333334],[0.10677083333333333],[1],[0],[0],[0.8195247000548989],[],835976,001,2022-09-16_07h55.53.756,visual search experiment,2022.2.2,60.03928970281507,
43,0,43,0,10,69.88665989995934,69.88665989995934,0.027965799905359745,[-0.4466145833333333],[-0.3984375],[1],[0],[0],[1.67414310015738],['target'],835976,001,2022-09-16_07h55.53.756,visual search experiment,2022.2.2,60.03928970281507,
44,0,44,0,10,71.61006739991717,71.61006739991717,0.04218310001306236,[-0.4661458333333333],[-0.2552083333333333],[1],[0],[0],[0.9433283000253141],[],835976,001,2022-09-16_07h55.53.756,visual search experiment,2022.2.2,60.03928970281507,
45,0,45,0,5,72.5749123999849,72.5749123999849,0.02074970002286136,[-0.2513020833333333],[-0.19661458333333334],[1],[0],[0],[0.9916387998964638],[],835976,001,2022-09-16_07h55.53.756,visual search experiment,2022.2.2,60.03928970281507,
46,0,46,0,10,73.63075620005839,73.63075620005839,0.05611630016937852,[0.21614583333333334],[0.4440104166666667],[1],[0],[0],[1.2915272999089211],['target'],835976,001,2022-09-16_07h55.53.756,visual search experiment,2022.2.2,60.03928970281507,
47,0,47,0,10,74.95951620000415,74.95951620000415,0.03162949997931719,[0.006510416666666667],[0.2669270833333333],[1],[0],[0],[0.8921146998181939],[],835976,001,2022-09-16_07h55.53.756,visual search experiment,2022.2.2,60.03928970281507,
48,0,48,0,10,75.88392359996215,75.88392359996215,0.02892399998381734,[0.2890625],[0.055989583333333336],[1],[0],[0],[1.0673134999815375],[],835976,001,2022-09-16_07h55.53.756,visual search experiment,2022.2.2,60.03928970281507,
49,0,49,0,5,76.96743780001998,76.96743780001998,0.016148099908605218,[-0.2994791666666667],[-0.3359375],[1],[0],[0],[1.0468316997867078],[],835976,001,2022-09-16_07h55.53.756,visual search experiment,2022.2.2,60.03928970281507,
50,0,50,0,5,78.03651300002821,78.03651300002821,0.017818599939346313,[0.15885416666666666],[0.4596354166666667],[1],[0],[0],[1.6273332999553531],[],835976,001,2022-09-16_07h55.53.756,visual search experiment,2022.2.2,60.03928970281507,
51,0,51,0,5,79.695111699868,79.695111699868,0.02459200005978346,[0.3020833333333333],[-0.359375],[1],[0],[0],[1.4193953999783844],[],835976,001,2022-09-16_07h55.53.756,visual search experiment,2022.2.2,60.03928970281507,
52,0,52,0,10,81.17648629983887,81.17648629983887,0.051419799914583564,[-0.033854166666666664],[0.3580729166666667],[1],[0],[0],[1.3644610999617726],['target'],835976,001,2022-09-16_07h55.53.756,visual search experiment,2022.2.2,60.03928970281507,
53,0,53,0,10,82.5851022999268,82.5851022999268,0.03906690003350377,[0.11328125],[-0.39453125],[1],[0],[0],[1.5024823998101056],[],835976,001,2022-09-16_07h55.53.756,visual search experiment,2022.2.2,60.03928970281507,
54,0,54,0,10,84.12110710004345,84.12110710004345,0.028117999900132418,[-0.14583333333333334],[-0.3294270833333333],[1],[0],[0],[0.9834988999646157],['target'],835976,001,2022-09-16_07h55.53.756,visual search experiment,2022.2.2,60.03928970281507,
55,0,55,0,10,85.1457817000337,85.1457817000337,0.03669309988617897,[-0.03515625],[0.11458333333333333],[1],[0],[0],[1.0062212999910116],[],835976,001,2022-09-16_07h55.53.756,visual search experiment,2022.2.2,60.03928970281507,
56,0,56,0,10,86.18498739995994,86.18498739995994,0.029905000003054738,[0.09765625],[0.13151041666666666],[1],[0],[0],[0.9175118000712246],[],835976,001,2022-09-16_07h55.53.756,visual search experiment,2022.2.2,60.03928970281507,
57,0,57,0,5,87.12349459994584,87.12349459994584,0.019589999923482537,[0.2265625],[-0.15364583333333334],[1],[0],[0],[1.2242002999410033],[],835976,001,2022-09-16_07h55.53.756,visual search experiment,2022.2.2,60.03928970281507,
58,0,58,0,10,88.39878509985283,88.39878509985283,0.04229169990867376,[0.3893229166666667],[0.3645833333333333],[1],[0],[0],[1.3679324998520315],[],835976,001,2022-09-16_07h55.53.756,visual search experiment,2022.2.2,60.03928970281507,
59,0,59,0,5,89.77922659995966,89.77922659995966,0.012747399974614382,[0.19010416666666666],[0.1015625],[1],[0],[0],[0.8019840000197291],[],835976,001,2022-09-16_07h55.53.756,visual search experiment,2022.2.2,60.03928970281507,
60,0,60,0,10,90.62281269999221,90.62281269999221,0.0321143998298794,[0.19010416666666666],[0.1015625],[1],[0],[0],[0.14767020009458065],[],835976,001,2022-09-16_07h55.53.756,visual search experiment,2022.2.2,60.03928970281507,
61,0,61,0,5,90.80409220000729,90.80409220000729,0.030418899841606617,[0.19010416666666666],[0.1015625],[1],[0],[0],[0.5459287001285702],[],835976,001,2022-09-16_07h55.53.756,visual search experiment,2022.2.2,60.03928970281507,
62,0,62,0,10,91.39276749989949,91.39276749989949,0.03506479994393885,[0.19010416666666666],[0.1015625],[1],[0],[0],[0.1606470001861453],[],835976,001,2022-09-16_07h55.53.756,visual search experiment,2022.2.2,60.03928970281507,
63,0,63,0,5,91.56973590003327,91.56973590003327,0.015928300097584724,[0.19010416666666666],[0.1015625],[1],[0],[0],[0.22880020015873015],[],835976,001,2022-09-16_07h55.53.756,visual search experiment,2022.2.2,60.03928970281507,
64,0,64,0,10,91.85776999988593,91.85776999988593,0.047105500008910894,[0.19010416666666666],[0.1015625],[1],[0],[0],[0.14634429989382625],[],835976,001,2022-09-16_07h55.53.756,visual search experiment,2022.2.2,60.03928970281507,
65,0,65,0,10,92.03581799985841,92.03581799985841,0.028689299942925572,[0.19010416666666666],[0.1015625],[1],[0],[0],[0.18381380010396242],[],835976,001,2022-09-16_07h55.53.756,visual search experiment,2022.2.2,60.03928970281507,
66,0,66,0,5,92.23543659993447,92.23543659993447,0.016017500078305602,[0.19010416666666666],[0.1015625],[1],[0],[0],[0.1789593999274075],[],835976,001,2022-09-16_07h55.53.756,visual search experiment,2022.2.2,60.03928970281507,
67,0,67,0,10,92.4646462998353,92.4646462998353,0.03801320004276931,[0.19010416666666666],[0.1015625],[1],[0],[0],[0.17428410006687045],[],835976,001,2022-09-16_07h55.53.756,visual search experiment,2022.2.2,60.03928970281507,
68,0,68,0,10,92.67987359990366,92.67987359990366,0.03622979996725917,[0.19010416666666666],[0.1015625],[1],[0],[0],[0.17227470013312995],[],835976,001,2022-09-16_07h55.53.756,visual search experiment,2022.2.2,60.03928970281507,
69,0,69,0,10,92.89188709994778,92.89188709994778,0.03373189992271364,[0.19010416666666666],[0.1015625],[1],[0],[0],[0.7618134000804275],[],835976,001,2022-09-16_07h55.53.756,visual search experiment,2022.2.2,60.03928970281507,
70,0,70,0,5,93.67996610002592,93.67996610002592,0.022822299972176552,[0.19010416666666666],[0.1015625],[1],[0],[0],[0.152758700074628],[],835976,001,2022-09-16_07h55.53.756,visual search experiment,2022.2.2,60.03928970281507,
71,0,71,0,5,93.85462079988793,93.85462079988793,0.01903280010446906,[0.19010416666666666],[0.1015625],[1],[0],[0],[0.1929115999955684],[],835976,001,2022-09-16_07h55.53.756,visual search experiment,2022.2.2,60.03928970281507,
72,0,72,0,5,94.08231429988518,94.08231429988518,0.028126199962571263,[0.19010416666666666],[0.1015625],[1],[0],[0],[0.1829075999557972],[],835976,001,2022-09-16_07h55.53.756,visual search experiment,2022.2.2,60.03928970281507,
73,0,73,0,5,94.29426979995333,94.29426979995333,0.02350839995779097,[0.19010416666666666],[0.1015625],[1],[0],[0],[0.2042914000339806],[],835976,001,2022-09-16_07h55.53.756,visual search experiment,2022.2.2,60.03928970281507,
74,0,74,0,5,94.52787479991093,94.52787479991093,0.022548099979758263,[0.19010416666666666],[0.1015625],[1],[0],[0],[0.1717326999641955],[],835976,001,2022-09-16_07h55.53.756,visual search experiment,2022.2.2,60.03928970281507,
75,0,75,0,10,94.74405089998618,94.74405089998618,0.034984400030225515,[0.19010416666666666],[0.1015625],[1],[0],[0],[0.21450220001861453],[],835976,001,2022-09-16_07h55.53.756,visual search experiment,2022.2.2,60.03928970281507,
76,0,76,0,5,94.97230759984814,94.97230759984814,0.014912599930539727,[0.19010416666666666],[0.1015625],[1],[0],[0],[0.1760497000068426],[],835976,001,2022-09-16_07h55.53.756,visual search experiment,2022.2.2,60.03928970281507,
77,0,77,0,5,95.18150929990225,95.18150929990225,0.026384300086647272,[0.19010416666666666],[0.1015625],[1],[0],[0],[0.16797489998862147],[],835976,001,2022-09-16_07h55.53.756,visual search experiment,2022.2.2,60.03928970281507,
78,0,78,0,10,95.39892679988407,95.39892679988407,0.04077159985899925,[0.19010416666666666],[0.1015625],[1],[0],[0],[0.15630199993029237],[],835976,001,2022-09-16_07h55.53.756,visual search experiment,2022.2.2,60.03928970281507,
79,0,79,0,10,95.59518469986506,95.59518469986506,0.03437619982287288,[0.19010416666666666],[0.1015625],[1],[0],[0],[1.2581415998283774],[],835976,001,2022-09-16_07h55.53.756,visual search experiment,2022.2.2,60.03928970281507,
80,0,80,0,5,96.86947369994596,96.86947369994596,0.016016900073736906,[0.19010416666666666],[0.1015625],[1],[0],[0],[0.14476339984685183],[],835976,001,2022-09-16_07h55.53.756,visual search experiment,2022.2.2,60.03928970281507,
81,0,81,0,10,97.06683250004426,97.06683250004426,0.04109849990345538,[0.19010416666666666],[0.1015625],[1],[0],[0],[0.17414389993064106],[],835976,001,2022-09-16_07h55.53.756,visual search experiment,2022.2.2,60.03928970281507,
82,0,82,0,10,97.27068409998901,97.27068409998901,0.02702170005068183,[0.19010416666666666],[0.1015625],[1],[0],[0],[0.1642112999688834],[],835976,001,2022-09-16_07h55.53.756,visual search experiment,2022.2.2,60.03928970281507,
83,0,83,0,10,97.48349209991284,97.48349209991284,0.0439514999743551,[0.19010416666666666],[0.1015625],[1],[0],[0],[0.1515226000919938],[],835976,001,2022-09-16_07h55.53.756,visual search experiment,2022.2.2,60.03928970281507,
84,0,84,0,10,97.66655239998363,97.66655239998363,0.02641000016592443,[0.19010416666666666],[0.1015625],[1],[0],[0],[0.17250890005379915],[],835976,001,2022-09-16_07h55.53.756,visual search experiment,2022.2.2,60.03928970281507,
85,0,85,0,10,97.86953289993107,97.86953289993107,0.028113899985328317,[0.19010416666666666],[0.1015625],[1],[0],[0],[0.16757539985701442],[],835976,001,2022-09-16_07h55.53.756,visual search experiment,2022.2.2,60.03928970281507,
86,0,86,0,10,98.07545430003665,98.07545430003665,0.03362199990078807,[0.19010416666666666],[0.1015625],[1],[0],[0],[0.1627100999467075],[],835976,001,2022-09-16_07h55.53.756,visual search experiment,2022.2.2,60.03928970281507,
87,0,87,0,5,98.2699482999742,98.2699482999742,0.026535699842497706,[0.19010416666666666],[0.1015625],[1],[0],[0],[0.14909520000219345],[],835976,001,2022-09-16_07h55.53.756,visual search experiment,2022.2.2,60.03928970281507,
88,0,88,0,5,98.45461539993994,98.45461539993994,0.026595199946314096,[0.19010416666666666],[0.1015625],[1],[0],[0],[0.1668977001681924],[],835976,001,2022-09-16_07h55.53.756,visual search experiment,2022.2.2,60.03928970281507,
89,0,89,0,5,98.64135289983824,98.64135289983824,0.021041000029072165,[0.19010416666666666],[0.1015625],[1],[0],[0],[0.40675240010023117],[],835976,001,2022-09-16_07h55.53.756,visual search experiment,2022.2.2,60.03928970281507,
90,0,90,0,10,99.10087209986523,99.10087209986523,0.044088900089263916,[0.19010416666666666],[0.1015625],[1],[0],[0],[0.11883879988454282],[],835976,001,2022-09-16_07h55.53.756,visual search experiment,2022.2.2,60.03928970281507,
91,0,91,0,5,99.2388273999095,99.2388273999095,0.016842500073835254,[0.19010416666666666],[0.1015625],[1],[0],[0],[0.19277850002981722],[],835976,001,2022-09-16_07h55.53.756,visual search experiment,2022.2.2,60.03928970281507,
92,0,92,0,5,99.46851069992408,99.46851069992408,0.02906169998459518,[0.19010416666666666],[0.1015625],[1],[0],[0],[0.18000920000486076],[],835976,001,2022-09-16_07h55.53.756,visual search experiment,2022.2.2,60.03928970281507,
93,0,93,0,10,99.69476430001669,99.69476430001669,0.0371673998888582,[0.19010416666666666],[0.1015625],[1],[0],[0],[0.14232599991373718],[],835976,001,2022-09-16_07h55.53.756,visual search experiment,2022.2.2,60.03928970281507,
94,0,94,0,10,99.86659160000272,99.86659160000272,0.02524380013346672,[0.19010416666666666],[0.1015625],[1],[0],[0],[0.20240040007047355],[],835976,001,2022-09-16_07h55.53.756,visual search experiment,2022.2.2,60.03928970281507,
95,0,95,0,10,100.09972759988159,100.09972759988159,0.027654199860990047,[0.19010416666666666],[0.1015625],[1],[0],[0],[0.16932780016213655],[],835976,001,2022-09-16_07h55.53.756,visual search experiment,2022.2.2,60.03928970281507,
96,0,96,0,5,100.29514209995978,100.29514209995978,0.02464479999616742,[0.19010416666666666],[0.1015625],[1],[0],[0],[0.18703259993344545],[],835976,001,2022-09-16_07h55.53.756,visual search experiment,2022.2.2,60.03928970281507,
97,0,97,0,10,100.52583269984461,100.52583269984461,0.03504580003209412,[0.19010416666666666],[0.1015625],[1],[0],[0],[0.15881440020166337],[],835976,001,2022-09-16_07h55.53.756,visual search experiment,2022.2.2,60.03928970281507,
98,0,98,0,5,100.71946339984424,100.71946339984424,0.028175799874588847,[0.19010416666666666],[0.1015625],[1],[0],[0],[0.16705220006406307],[],835976,001,2022-09-16_07h55.53.756,visual search experiment,2022.2.2,60.03928970281507,
99,0,99,0,10,100.9328014999628,100.9328014999628,0.041400999994948506,[-0.4427083333333333],[0.4322916666666667],[1],[0],[0],[1.7205420001409948],['target'],835976,001,2022-09-16_07h55.53.756,visual search experiment,2022.2.2,60.03928970281507,
100,0,100,0,10,102.7068892000243,102.7068892000243,0.04479079996235669,[-0.2877604166666667],[0.020833333333333332],[1],[0],[0],[1.203678600024432],['target'],835976,001,2022-09-16_07h55.53.756,visual search experiment,2022.2.2,60.03928970281507,
101,0,101,0,5,103.9322247998789,103.9322247998789,0.021629200084134936,[-0.2708333333333333],[-0.34765625],[1],[0],[0],[1.216651099966839],[],835976,001,2022-09-16_07h55.53.756,visual search experiment,2022.2.2,60.03928970281507,
102,0,102,0,10,105.18243769998662,105.18243769998662,0.02704779990017414,[0.3828125],[0.4153645833333333],[1],[0],[0],[1.4077325998805463],['target'],835976,001,2022-09-16_07h55.53.756,visual search experiment,2022.2.2,60.03928970281507,
103,0,103,0,10,106.63691299990751,106.63691299990751,0.04115499998442829,[-0.078125],[-0.2708333333333333],[1],[0],[0],[1.567678299965337],['target'],835976,001,2022-09-16_07h55.53.756,visual search experiment,2022.2.2,60.03928970281507,
104,0,104,0,5,108.23091429984197,108.23091429984197,0.023641500156372786,[-0.12109375],[0.3932291666666667],[1],[0],[0],[1.0341438001487404],['target'],835976,001,2022-09-16_07h55.53.756,visual search experiment,2022.2.2,60.03928970281507,
105,0,105,0,10,109.31796909985133,109.31796909985133,0.040177199989557266,[-0.22135416666666666],[0.40625],[1],[0],[0],[0.8885405000764877],['target'],835976,001,2022-09-16_07h55.53.756,visual search experiment,2022.2.2,60.03928970281507,
106,0,106,0,5,110.21718629985116,110.21718629985116,0.01433470007032156,[0.3841145833333333],[0.3046875],[1],[0],[0],[1.4976093999575824],[],835976,001,2022-09-16_07h55.53.756,visual search experiment,2022.2.2,60.03928970281507,
107,0,107,0,10,111.76462040003389,111.76462040003389,0.03896049992181361,[0.2734375],[-0.24739583333333334],[1],[0],[0],[1.1877472000196576],[],835976,001,2022-09-16_07h55.53.756,visual search experiment,2022.2.2,60.03928970281507,
108,0,108,0,10,112.97854819986969,112.97854819986969,0.024376299930736423,[-0.19140625],[-0.15494791666666666],[1],[0],[0],[0.981728499988094],[],835976,001,2022-09-16_07h55.53.756,visual search experiment,2022.2.2,60.03928970281507,
109,0,109,0,5,113.97573389997706,113.97573389997706,0.015401700045913458,[-0.01171875],[-0.16927083333333334],[1],[0],[0],[0.8393041000235826],[],835976,001,2022-09-16_07h55.53.756,visual search experiment,2022.2.2,60.03928970281507,
110,0,110,0,5,114.83749839989468,114.83749839989468,0.018778800033032894,[0.3046875],[-0.40625],[1],[0],[0],[1.1277396001387388],['target'],835976,001,2022-09-16_07h55.53.756,visual search experiment,2022.2.2,60.03928970281507,
111,0,111,0,5,115.98994700005278,115.98994700005278,0.019053800031542778,[-0.4895833333333333],[0.022135416666666668],[1],[0],[0],[1.2082672999240458],[],835976,001,2022-09-16_07h55.53.756,visual search experiment,2022.2.2,60.03928970281507,
112,0,112,0,10,117.23895359993912,117.23895359993912,0.03188859997317195,[-0.4479166666666667],[-0.4010416666666667],[1],[0],[0],[1.1792285998817533],[],835976,001,2022-09-16_07h55.53.756,visual search experiment,2022.2.2,60.03928970281507,
113,0,113,0,10,118.46906919986941,118.46906919986941,0.045298000099137425,[0.3411458333333333],[0.20442708333333334],[1],[0],[0],[1.2504997001960874],[],835976,001,2022-09-16_07h55.53.756,visual search experiment,2022.2.2,60.03928970281507,
114,0,114,0,5,119.75926860002801,119.75926860002801,0.030237900093197823,[-0.20703125],[0.1484375],[1],[0],[0],[0.8956422999035567],[],835976,001,2022-09-16_07h55.53.756,visual search experiment,2022.2.2,60.03928970281507,
115,0,115,0,5,120.67717080004513,120.67717080004513,0.02251269994303584,[0.3111979166666667],[0.171875],[1],[0],[0],[0.8879510001279414],[],835976,001,2022-09-16_07h55.53.756,visual search experiment,2022.2.2,60.03928970281507,
116,0,116,0,5,121.59180589998141,121.59180589998141,0.02109090005978942,[-0.4153645833333333],[0.059895833333333336],[1],[0],[0],[0.9398481999523938],['target'],835976,001,2022-09-16_07h55.53.756,visual search experiment,2022.2.2,60.03928970281507,
117,0,117,0,10,122.58369360002689,122.58369360002689,0.04107299982570112,[0.16015625],[-0.3880208333333333],[1],[0],[0],[1.4358351000119],[],835976,001,2022-09-16_07h55.53.756,visual search experiment,2022.2.2,60.03928970281507,
118,0,118,0,5,124.03664669999853,124.03664669999853,0.01792749995365739,[0.4440104166666667],[0.453125],[1],[0],[0],[1.2124433000572026],[],835976,001,2022-09-16_07h55.53.756,visual search experiment,2022.2.2,60.03928970281507,
119,0,119,0,5,125.27764079999179,125.27764079999179,0.023455100134015083,[-0.07682291666666667],[-0.23697916666666666],[1],[0],[0],[1.2248217000160366],[],835976,001,2022-09-16_07h55.53.756,visual search experiment,2022.2.2,60.03928970281507,
120,0,120,0,5,126.53016319987364,126.53016319987364,0.022213600110262632,[0.2565104166666667],[-0.2421875],[1],[0],[0],[1.201197100104764],['target'],835976,001,2022-09-16_07h55.53.756,visual search experiment,2022.2.2,60.03928970281507,
121,0,121,0,10,127.7813011999242,127.7813011999242,0.039977800101041794,[0.3541666666666667],[-0.11848958333333333],[1],[0],[0],[0.957524900091812],['target'],835976,001,2022-09-16_07h55.53.756,visual search experiment,2022.2.2,60.03928970281507,
122,0,122,0,5,128.7550466998946,128.7550466998946,0.016007999889552593,[0.09505208333333333],[0.43359375],[1],[0],[0],[1.4928860999643803],['target'],835976,001,2022-09-16_07h55.53.756,visual search experiment,2022.2.2,60.03928970281507,
123,0,123,0,5,130.28423190000467,130.28423190000467,0.027671099873259664,[-0.3033854166666667],[-0.4348958333333333],[1],[0],[0],[1.6166463000699878],['target'],835976,001,2022-09-16_07h55.53.756,visual search experiment,2022.2.2,60.03928970281507,
124,0,124,0,5,131.9313590999227,131.9313590999227,0.025917600141838193,[0.43359375],[0.4583333333333333],[1],[0],[0],[1.1680179999675602],['target'],835976,001,2022-09-16_07h55.53.756,visual search experiment,2022.2.2,60.03928970281507,
125,0,125,0,5,133.13900409988128,133.13900409988128,0.02929450012743473,[-0.3098958333333333],[-0.10416666666666667],[1],[0],[0],[1.4816061998717487],[],835976,001,2022-09-16_07h55.53.756,visual search experiment,2022.2.2,60.03928970281507,
126,0,126,0,10,134.6577959000133,134.6577959000133,0.032785800052806735,[0.296875],[-0.053385416666666664],[1],[0],[0],[1.3945875000208616],[],835976,001,2022-09-16_07h55.53.756,visual search experiment,2022.2.2,60.03928970281507,
127,0,127,0,10,136.09432819997892,136.09432819997892,0.03541340003721416,[-0.17578125],[-0.390625],[1],[0],[0],[1.2604942999314517],[],835976,001,2022-09-16_07h55.53.756,visual search experiment,2022.2.2,60.03928970281507,
128,0,128,0,10,137.38205170002766,137.38205170002766,0.027540799928829074,[-0.05859375],[0.22005208333333334],[1],[0],[0],[0.8526850999332964],[],835976,001,2022-09-16_07h55.53.756,visual search experiment,2022.2.2,60.03928970281507,
129,0,129,0,10,138.26219639996998,138.26219639996998,0.02399919996969402,[0.4388020833333333],[0.3515625],[1],[0],[0],[1.2280890000984073],[],835976,001,2022-09-16_07h55.53.756,visual search experiment,2022.2.2,60.03928970281507,
130,0,130,0,5,139.5039669999387,139.5039669999387,0.014836299931630492,[0.2877604166666667],[0.12890625],[1],[0],[0],[0.9772284999489784],['target'],835976,001,2022-09-16_07h55.53.756,visual search experiment,2022.2.2,60.03928970281507,
131,0,131,0,10,140.53441759990528,140.53441759990528,0.04201580001972616,[-0.3893229166666667],[0.05078125],[1],[0],[0],[1.453924800036475],[],835976,001,2022-09-16_07h55.53.756,visual search experiment,2022.2.2,60.03928970281507,
132,0,132,0,5,142.00475830002688,142.00475830002688,0.016963500063866377,[-0.5],[-0.2721354166666667],[1],[0],[0],[1.5437710001133382],['target'],835976,001,2022-09-16_07h55.53.756,visual search experiment,2022.2.2,60.03928970281507,
133,0,133,0,5,143.5869326000102,143.5869326000102,0.02702989988029003,[0.3697916666666667],[-0.4986979166666667],[1],[0],[0],[1.6336982999928296],['target'],835976,001,2022-09-16_07h55.53.756,visual search experiment,2022.2.2,60.03928970281507,
134,0,134,0,5,145.23824249999598,145.23824249999598,0.018793700030073524,[-0.3828125],[0.3997395833333333],[1],[0],[0],[1.4762200000695884],['target'],835976,001,2022-09-16_07h55.53.756,visual search experiment,2022.2.2,60.03928970281507,
135,0,135,0,10,146.75783049990423,146.75783049990423,0.033256700029596686,[-0.4088541666666667],[0.10026041666666667],[1],[0],[0],[0.9618508999701589],['target'],835976,001,2022-09-16_07h55.53.756,visual search experiment,2022.2.2,60.03928970281507,
136,0,136,0,5,147.75015039998107,147.75015039998107,0.027080000145360827,[-0.0234375],[-0.19010416666666666],[1],[0],[0],[0.8990106000564992],['target'],835976,001,2022-09-16_07h55.53.756,visual search experiment,2022.2.2,60.03928970281507,
137,0,137,0,5,148.67685619997792,148.67685619997792,0.022957100067287683,[0.22526041666666666],[0.40625],[1],[0],[0],[0.8880885997787118],['target'],835976,001,2022-09-16_07h55.53.756,visual search experiment,2022.2.2,60.03928970281507,
138,0,138,0,5,149.59044489986263,149.59044489986263,0.019639099948108196,[0.16536458333333334],[0.21484375],[1],[0],[0],[0.7907222998328507],['target'],835976,001,2022-09-16_07h55.53.756,visual search experiment,2022.2.2,60.03928970281507,
139,0,139,0,10,150.43612159998156,150.43612159998156,0.044052100041881204,[-0.4192708333333333],[-0.15364583333333334],[1],[0],[0],[1.3833403999451548],[],835976,001,2022-09-16_07h55.53.756,visual search experiment,2022.2.2,60.03928970281507,
140,0,140,0,10,151.86063709994778,151.86063709994778,0.03587740007787943,[0.3515625],[-0.18619791666666666],[1],[0],[0],[0.9662524999585003],[],835976,001,2022-09-16_07h55.53.756,visual search experiment,2022.2.2,60.03928970281507,
141,0,141,0,5,152.8501042998396,152.8501042998396,0.021971800131723285,[-0.33984375],[-0.11979166666666667],[1],[0],[0],[1.0980539000593126],[],835976,001,2022-09-16_07h55.53.756,visual search experiment,2022.2.2,60.03928970281507,
142,0,142,0,10,154.0193266000133,154.0193266000133,0.060770600102841854,[0.055989583333333336],[0.29296875],[1],[0],[0],[0.8502444999758154],[],835976,001,2022-09-16_07h55.53.756,visual search experiment,2022.2.2,60.03928970281507,
143,0,143,0,10,154.91346629988402,154.91346629988402,0.03813100000843406,[-0.0546875],[-0.20182291666666666],[1],[0],[0],[1.2554293000139296],['target'],835976,001,2022-09-16_07h55.53.756,visual search experiment,2022.2.2,60.03928970281507,
144,0,144,0,5,156.18528559990227,156.18528559990227,0.016163900028914213,[-0.19661458333333334],[0.109375],[1],[0],[0],[1.1302339998073876],['target'],835976,001,2022-09-16_07h55.53.756,visual search experiment,2022.2.2,60.03928970281507,
145,0,145,0,5,157.35010569985025,157.35010569985025,0.02802910003811121,[-0.013020833333333334],[0.3216145833333333],[1],[0],[0],[0.8993271000217646],[],835976,001,2022-09-16_07h55.53.756,visual search experiment,2022.2.2,60.03928970281507,
146,0,146,0,10,158.30976750003174,158.30976750003174,0.052233400056138635,[0.3229166666666667],[0.4075520833333333],[1],[0],[0],[1.0083268000744283],[],835976,001,2022-09-16_07h55.53.756,visual search experiment,2022.2.2,60.03928970281507,
147,0,147,0,10,159.35100460005924,159.35100460005924,0.028929200023412704,[0.3854166666666667],[0.13541666666666666],[1],[0],[0],[0.8509568001609296],[],835976,001,2022-09-16_07h55.53.756,visual search experiment,2022.2.2,60.03928970281507,
148,0,148,0,5,160.2216316999402,160.2216316999402,0.01796149997971952,[0.040364583333333336],[0.3424479166666667],[1],[0],[0],[0.9777712000068277],[],835976,001,2022-09-16_07h55.53.756,visual search experiment,2022.2.2,60.03928970281507,
149,0,149,0,10,161.2417677999474,161.2417677999474,0.03458340000361204,[0.06510416666666667],[0.11588541666666667],[1],[0],[0],[0.7260879999957979],[],835976,001,2022-09-16_07h55.53.756,visual search experiment,2022.2.2,60.03928970281507,
150,0,150,0,10,162.00396690005437,162.00396690005437,0.03068269998766482,[0.06510416666666667],[0.11588541666666667],[1],[0],[0],[0.13447510008700192],[],835976,001,2022-09-16_07h55.53.756,visual search experiment,2022.2.2,60.03928970281507,
151,0,151,0,5,162.1525483999867,162.1525483999867,0.014685299945995212,[0.06510416666666667],[0.11588541666666667],[1],[0],[0],[0.18022229988127947],[],835976,001,2022-09-16_07h55.53.756,visual search experiment,2022.2.2,60.03928970281507,
152,0,152,0,5,162.37266650004312,162.37266650004312,0.03125320002436638,[0.06510416666666667],[0.11588541666666667],[1],[0],[0],[0.16344160004518926],[],835976,001,2022-09-16_07h55.53.756,visual search experiment,2022.2.2,60.03928970281507,
153,0,153,0,10,162.58161480003037,162.58161480003037,0.03880790015682578,[0.06510416666666667],[0.11588541666666667],[1],[0],[0],[0.158104200148955],[],835976,001,2022-09-16_07h55.53.756,visual search experiment,2022.2.2,60.03928970281507,
154,0,154,0,5,162.76353119988926,162.76353119988926,0.022613999899476767,[0.06510416666666667],[0.11588541666666667],[1],[0],[0],[0.16933339997194707],[],835976,001,2022-09-16_07h55.53.756,visual search experiment,2022.2.2,60.03928970281507,
155,0,155,0,5,162.95760779990815,162.95760779990815,0.020513299852609634,[0.06510416666666667],[0.11588541666666667],[1],[0],[0],[0.1736991999205202],[],835976,001,2022-09-16_07h55.53.756,visual search experiment,2022.2.2,60.03928970281507,
156,0,156,0,10,163.1800783998333,163.1800783998333,0.038791799917817116,[0.06510416666666667],[0.11588541666666667],[1],[0],[0],[0.14135259995236993],[],835976,001,2022-09-16_07h55.53.756,visual search experiment,2022.2.2,60.03928970281507,
157,0,157,0,5,163.3478524000384,163.3478524000384,0.02281069988384843,[0.06510416666666667],[0.11588541666666667],[1],[0],[0],[0.18501970008946955],[],835976,001,2022-09-16_07h55.53.756,visual search experiment,2022.2.2,60.03928970281507,
158,0,158,0,5,163.56666349992156,163.56666349992156,0.028905700193718076,[0.06510416666666667],[0.11588541666666667],[1],[0],[0],[0.16556110000237823],[],835976,001,2022-09-16_07h55.53.756,visual search experiment,2022.2.2,60.03928970281507,
159,0,159,0,5,163.76214649993926,163.76214649993926,0.023812999948859215,[0.06510416666666667],[0.11588541666666667],[1],[0],[0],[0.15387160005047917],[],835976,001,2022-09-16_07h55.53.756,visual search experiment,2022.2.2,60.03928970281507,
160,0,160,0,10,163.973612499889,163.973612499889,0.04433410009369254,[0.06510416666666667],[0.11588541666666667],[1],[0],[0],[0.13591529987752438],[],835976,001,2022-09-16_07h55.53.756,visual search experiment,2022.2.2,60.03928970281507,
161,0,161,0,5,164.12416730006225,164.12416730006225,0.0178982000797987,[0.06510416666666667],[0.11588541666666667],[1],[0],[0],[0.17576029989868402],[],835976,001,2022-09-16_07h55.53.756,visual search experiment,2022.2.2,60.03928970281507,
162,0,162,0,10,164.3520847999025,164.3520847999025,0.04352200007997453,[0.06510416666666667],[0.11588541666666667],[1],[0],[0],[0.16929009999148548],[],835976,001,2022-09-16_07h55.53.756,visual search experiment,2022.2.2,60.03928970281507,
163,0,163,0,5,164.55012049991637,164.55012049991637,0.023740599863231182,[0.06510416666666667],[0.11588541666666667],[1],[0],[0],[0.16833740007132292],[],835976,001,2022-09-16_07h55.53.756,visual search experiment,2022.2.2,60.03928970281507,
164,0,164,0,10,164.76193719985895,164.76193719985895,0.03442999999970198,[0.06510416666666667],[0.11588541666666667],[1],[0],[0],[0.14050810015760362],[],835976,001,2022-09-16_07h55.53.756,visual search experiment,2022.2.2,60.03928970281507,
165,0,165,0,10,164.9334257999435,164.9334257999435,0.028027300024405122,[0.06510416666666667],[0.11588541666666667],[1],[0],[0],[0.1707496999297291],[],835976,001,2022-09-16_07h55.53.756,visual search experiment,2022.2.2,60.03928970281507,
166,0,166,0,5,165.1187894998584,165.1187894998584,0.014194600051268935,[0.06510416666666667],[0.11588541666666667],[1],[0],[0],[0.180287100141868],[],835976,001,2022-09-16_07h55.53.756,visual search experiment,2022.2.2,60.03928970281507,
167,0,167,0,5,165.31972769997083,165.31972769997083,0.017531900200992823,[0.06510416666666667],[0.11588541666666667],[1],[0],[0],[0.1781673999503255],[],835976,001,2022-09-16_07h55.53.756,visual search experiment,2022.2.2,60.03928970281507,
168,0,168,0,5,165.53539630002342,165.53539630002342,0.028352299937978387,[0.06510416666666667],[0.11588541666666667],[1],[0],[0],[0.13288439996540546],[],835976,001,2022-09-16_07h55.53.756,visual search experiment,2022.2.2,60.03928970281507,
169,0,169,0,5,165.7019835000392,165.7019835000392,0.025587699841707945,[0.06510416666666667],[0.11588541666666667],[1],[0],[0],[0.18577690003439784],[],835976,001,2022-09-16_07h55.53.756,visual search experiment,2022.2.2,60.03928970281507,
170,0,170,0,5,165.90965789998882,165.90965789998882,0.021488599944859743,[0.06510416666666667],[0.11588541666666667],[1],[0],[0],[0.1719347001053393],[],835976,001,2022-09-16_07h55.53.756,visual search experiment,2022.2.2,60.03928970281507,
171,0,171,0,5,166.10965969995596,166.10965969995596,0.022340400144457817,[0.06510416666666667],[0.11588541666666667],[1],[0],[0],[0.17182320007123053],[],835976,001,2022-09-16_07h55.53.756,visual search experiment,2022.2.2,60.03928970281507,
172,0,172,0,5,166.30168609996326,166.30168609996326,0.016052299877628684,[0.06510416666666667],[0.11588541666666667],[1],[0],[0],[0.16319480002857745],[],835976,001,2022-09-16_07h55.53.756,visual search experiment,2022.2.2,60.03928970281507,
173,0,173,0,5,166.5022336000111,166.5022336000111,0.02943799993954599,[0.06510416666666667],[0.11588541666666667],[1],[0],[0],[0.16461930004879832],[],835976,001,2022-09-16_07h55.53.756,visual search experiment,2022.2.2,60.03928970281507,
174,0,174,0,10,166.7019169998821,166.7019169998821,0.028216100065037608,[0.06510416666666667],[0.11588541666666667],[1],[0],[0],[0.15354490000754595],[],835976,001,2022-09-16_07h55.53.756,visual search experiment,2022.2.2,60.03928970281507,
175,0,175,0,10,166.90784229990095,166.90784229990095,0.046788200037553906,[0.06510416666666667],[0.11588541666666667],[1],[0],[0],[0.16282970015890896],[],835976,001,2022-09-16_07h55.53.756,visual search experiment,2022.2.2,60.03928970281507,
176,0,176,0,10,167.12938679987565,167.12938679987565,0.0531078998465091,[0.06510416666666667],[0.11588541666666667],[1],[0],[0],[0.12272089999169111],[],835976,001,2022-09-16_07h55.53.756,visual search experiment,2022.2.2,60.03928970281507,
177,0,177,0,10,167.2852793999482,167.2852793999482,0.029018300119787455,[0.06510416666666667],[0.11588541666666667],[1],[0],[0],[0.1838461000006646],[],835976,001,2022-09-16_07h55.53.756,visual search experiment,2022.2.2,60.03928970281507,
178,0,178,0,10,167.50159700005315,167.50159700005315,0.027121900115162134,[0.06510416666666667],[0.11588541666666667],[1],[0],[0],[0.1601246001664549],[],835976,001,2022-09-16_07h55.53.756,visual search experiment,2022.2.2,60.03928970281507,
179,0,179,0,5,167.6915859999135,167.6915859999135,0.02771489997394383,[0.06510416666666667],[0.11588541666666667],[1],[0],[0],[0.16486340016126633],[],835976,001,2022-09-16_07h55.53.756,visual search experiment,2022.2.2,60.03928970281507,
180,0,180,0,10,167.90585709991865,167.90585709991865,0.03678690013475716,[0.06510416666666667],[0.11588541666666667],[1],[0],[0],[0.16250710003077984],[],835976,001,2022-09-16_07h55.53.756,visual search experiment,2022.2.2,60.03928970281507,
181,0,181,0,10,168.10011680005118,168.10011680005118,0.025843000039458275,[0.06510416666666667],[0.11588541666666667],[1],[0],[0],[0.1550841999705881],[],835976,001,2022-09-16_07h55.53.756,visual search experiment,2022.2.2,60.03928970281507,
182,0,182,0,10,168.2927456998732,168.2927456998732,0.034699900075793266,[0.06510416666666667],[0.11588541666666667],[1],[0],[0],[0.16019990015774965],[],835976,001,2022-09-16_07h55.53.756,visual search experiment,2022.2.2,60.03928970281507,
183,0,183,0,5,168.46458290005103,168.46458290005103,0.013079999946057796,[0.06510416666666667],[0.11588541666666667],[1],[0],[0],[0.18434999999590218],[],835976,001,2022-09-16_07h55.53.756,visual search experiment,2022.2.2,60.03928970281507,
184,0,184,0,10,168.69885849999264,168.69885849999264,0.03987940005026758,[0.06510416666666667],[0.11588541666666667],[1],[0],[0],[0.174046800006181],[],835976,001,2022-09-16_07h55.53.756,visual search experiment,2022.2.2,60.03928970281507,
185,0,185,0,5,168.89830720005557,168.89830720005557,0.02347750007174909,[0.06510416666666667],[0.11588541666666667],[1],[0],[0],[0.16786450007930398],[],835976,001,2022-09-16_07h55.53.756,visual search experiment,2022.2.2,60.03928970281507,
186,0,186,0,5,169.10447390004992,169.10447390004992,0.02937689982354641,[0.06510416666666667],[0.11588541666666667],[1],[0],[0],[0.16424999991431832],[],835976,001,2022-09-16_07h55.53.756,visual search experiment,2022.2.2,60.03928970281507,
187,0,187,0,5,169.29160730005242,169.29160730005242,0.020909500075504184,[0.06510416666666667],[0.11588541666666667],[1],[0],[0],[0.17326910002157092],[],835976,001,2022-09-16_07h55.53.756,visual search experiment,2022.2.2,60.03928970281507,
188,0,188,0,10,169.5194863998331,169.5194863998331,0.044561299961060286,[0.06510416666666667],[0.11588541666666667],[1],[0],[0],[0.1493034001905471],[],835976,001,2022-09-16_07h55.53.756,visual search experiment,2022.2.2,60.03928970281507,
189,0,189,0,5,169.68177270004526,169.68177270004526,0.01365020009689033,[0.06510416666666667],[0.11588541666666667],[1],[0],[0],[0.18364470009692013],[],835976,001,2022-09-16_07h55.53.756,visual search experiment,2022.2.2,60.03928970281507,
190,0,190,0,10,169.91695909993723,169.91695909993723,0.04252749984152615,[0.06510416666666667],[0.11588541666666667],[1],[0],[0],[0.16774599999189377],[],835976,001,2022-09-16_07h55.53.756,visual search experiment,2022.2.2,60.03928970281507,
191,0,191,0,5,170.09973259991966,170.09973259991966,0.015586799941956997,[0.06510416666666667],[0.11588541666666667],[1],[0],[0],[0.18131279991939664],[],835976,001,2022-09-16_07h55.53.756,visual search experiment,2022.2.2,60.03928970281507,
192,0,192,0,10,170.32916749990545,170.32916749990545,0.03725769999437034,[0.06510416666666667],[0.11588541666666667],[1],[0],[0],[0.1416857000440359],[],835976,001,2022-09-16_07h55.53.756,visual search experiment,2022.2.2,60.03928970281507,
193,0,193,0,10,170.50529740005732,170.50529740005732,0.029718800215050578,[0.06510416666666667],[0.11588541666666667],[1],[0],[0],[0.18160369992256165],[],835976,001,2022-09-16_07h55.53.756,visual search experiment,2022.2.2,60.03928970281507,
194,0,194,0,10,170.72693130001426,170.72693130001426,0.035128300078213215,[0.06510416666666667],[0.11588541666666667],[1],[0],[0],[0.16081120003946126],[],835976,001,2022-09-16_07h55.53.756,visual search experiment,2022.2.2,60.03928970281507,
195,0,195,0,5,170.91080419998616,170.91080419998616,0.02155880001373589,[0.06510416666666667],[0.11588541666666667],[1],[0],[0],[0.15515709994360805],[],835976,001,2022-09-16_07h55.53.756,visual search experiment,2022.2.2,60.03928970281507,
196,0,196,0,5,171.08602559985593,171.08602559985593,0.0167733000125736,[0.06510416666666667],[0.11588541666666667],[1],[0],[0],[0.1450370999518782],[],835976,001,2022-09-16_07h55.53.756,visual search experiment,2022.2.2,60.03928970281507,
197,0,197,0,10,171.27762359986082,171.27762359986082,0.03644050005823374,[0.06510416666666667],[0.11588541666666667],[1],[0],[0],[0.22432609996758401],[],835976,001,2022-09-16_07h55.53.756,visual search experiment,2022.2.2,60.03928970281507,
198,0,198,0,10,171.54619410005398,171.54619410005398,0.03816329990513623,[0.06510416666666667],[0.11588541666666667],[1],[0],[0],[0.1395759000442922],[],835976,001,2022-09-16_07h55.53.756,visual search experiment,2022.2.2,60.03928970281507,
199,0,199,0,5,171.702311999863,171.702311999863,0.016841599950566888,[0.06510416666666667],[0.11588541666666667],[1],[0],[0],[0.18008920014835894],[],835976,001,2022-09-16_07h55.53.756,visual search experiment,2022.2.2,60.03928970281507,
