pos,corr_resp,trials.thisRepN,trials.thisTrialN,trials.thisN,trials.thisIndex,trials_2.thisRepN,trials_2.thisTrialN,trials_2.thisN,trials_2.thisIndex,fixation.started,line1.started,line2.started,line3.started,line4.started,fixation.stopped,probe.started,key_resp.started,key_resp.keys,key_resp.corr,key_resp.rt,participant,session,date,expName,psychopyVersion,frameRate,
-50,x,0,0,0,0,,,,,10.312379800001509,11.30440400000225,11.30440400000225,11.30440400000225,11.30440400000225,11.321019700000761,12.304410099997767,12.304410099997767,x,1,1.0783762999999453,480718,001,2022-09-30_07h10.21.682,motor sequence learning,2022.2.2,59.998584034858226,
150,v,0,1,1,1,,,,,13.404442799997923,14.40464929999871,14.40464929999871,14.40464929999871,14.40464929999871,14.40464929999871,15.404460400000971,15.404460400000971,v,1,0.9536575999954948,480718,001,2022-09-30_07h10.21.682,motor sequence learning,2022.2.2,59.998584034858226,
50,c,0,2,2,2,,,,,16.38769560000219,17.387992700001632,17.387992700001632,17.387992700001632,17.387992700001632,17.387992700001632,18.387735900003463,18.387735900003463,c,1,0.825390799996967,480718,001,2022-09-30_07h10.21.682,motor sequence learning,2022.2.2,59.998584034858226,
-150,z,0,3,3,3,,,,,19.23774879999837,20.238055499998154,20.238055499998154,20.238055499998154,20.238055499998154,20.238055499998154,21.237860000001092,21.237860000001092,z,1,0.7649721999987378,480718,001,2022-09-30_07h10.21.682,motor sequence learning,2022.2.2,59.998584034858226,
-50,x,1,0,4,0,,,,,22.02113400000235,23.02139950000128,23.02139950000128,23.02139950000128,23.02139950000128,23.02139950000128,24.021361300001445,24.021361300001445,x,1,0.8826073999953223,480718,001,2022-09-30_07h10.21.682,motor sequence learning,2022.2.2,59.998584034858226,
150,v,1,1,5,1,,,,,24.92114600000059,25.921215700000175,25.921215700000175,25.921215700000175,25.921215700000175,25.921215700000175,26.921225300000515,26.921225300000515,v,1,0.8491877999986173,480718,001,2022-09-30_07h10.21.682,motor sequence learning,2022.2.2,59.998584034858226,
50,c,1,2,6,2,,,,,27.787857299997995,28.787865899997996,28.787865899997996,28.787865899997996,28.787865899997996,28.787865899997996,29.787732000004326,29.787732000004326,c,1,1.0167130999980145,480718,001,2022-09-30_07h10.21.682,motor sequence learning,2022.2.2,59.998584034858226,
-150,z,1,3,7,3,,,,,30.82143409999844,31.821360000001732,31.821360000001732,31.821360000001732,31.821360000001732,31.821360000001732,32.82111140000052,32.82111140000052,z,1,0.7024881999968784,480718,001,2022-09-30_07h10.21.682,motor sequence learning,2022.2.2,59.998584034858226,
-50,x,2,0,8,0,,,,,33.554405900002166,34.55478669999866,34.55478669999866,34.55478669999866,34.55478669999866,34.55478669999866,35.55443920000107,35.55443920000107,x,1,0.6079083000004175,480718,001,2022-09-30_07h10.21.682,motor sequence learning,2022.2.2,59.998584034858226,
150,v,2,1,9,1,,,,,36.18784700000106,37.187916900002165,37.187916900002165,37.187916900002165,37.187916900002165,37.187916900002165,38.18777709999995,38.18777709999995,v,1,0.7646367999986978,480718,001,2022-09-30_07h10.21.682,motor sequence learning,2022.2.2,59.998584034858226,
50,c,2,2,10,2,,,,,38.97123840000131,39.97143710000091,39.97143710000091,39.97143710000091,39.97143710000091,39.97143710000091,40.97120200000063,40.97120200000063,c,1,0.8635966000001645,480718,001,2022-09-30_07h10.21.682,motor sequence learning,2022.2.2,59.998584034858226,
-150,z,2,3,11,3,,,,,41.854540799999086,42.85475769999903,42.85475769999903,42.85475769999903,42.85475769999903,42.85475769999903,43.85456359999807,43.85456359999807,z,1,0.6285954999984824,480718,001,2022-09-30_07h10.21.682,motor sequence learning,2022.2.2,59.998584034858226,
-50,x,3,0,12,0,,,,,44.504440700002306,45.50456940000004,45.50456940000004,45.50456940000004,45.50456940000004,45.50456940000004,46.504594500001986,46.504594500001986,x,1,2.018873300003179,480718,001,2022-09-30_07h10.21.682,motor sequence learning,2022.2.2,59.998584034858226,
150,v,3,1,13,1,,,,,48.554562299999816,49.55468030000338,49.55468030000338,49.55468030000338,49.55468030000338,49.55468030000338,50.55445570000302,50.55445570000302,v,1,0.8172843999927863,480718,001,2022-09-30_07h10.21.682,motor sequence learning,2022.2.2,59.998584034858226,
50,c,3,2,14,2,,,,,51.38789009999891,52.38803159999952,52.38803159999952,52.38803159999952,52.38803159999952,52.38803159999952,53.38781100000051,53.38781100000051,c,1,0.7635654999976396,480718,001,2022-09-30_07h10.21.682,motor sequence learning,2022.2.2,59.998584034858226,
-150,z,3,3,15,3,,,,,54.1711798000033,55.17140620000282,55.17140620000282,55.17140620000282,55.17140620000282,55.17140620000282,56.171352000004845,56.171352000004845,z,1,0.700028299994301,480718,001,2022-09-30_07h10.21.682,motor sequence learning,2022.2.2,59.998584034858226,
-50,x,4,0,16,0,,,,,56.88796340000408,57.888011000002734,57.888011000002734,57.888011000002734,57.888011000002734,57.888011000002734,58.888009900001634,58.888009900001634,x,1,0.7268953999955556,480718,001,2022-09-30_07h10.21.682,motor sequence learning,2022.2.2,59.998584034858226,
150,v,4,1,17,1,,,,,59.637973600001715,60.63816680000309,60.63816680000309,60.63816680000309,60.63816680000309,60.63816680000309,61.638004000000365,61.638004000000365,v,1,0.7794775000002119,480718,001,2022-09-30_07h10.21.682,motor sequence learning,2022.2.2,59.998584034858226,
50,c,4,2,18,2,,,,,62.43788630000199,63.43803679999837,63.43803679999837,63.43803679999837,63.43803679999837,63.43803679999837,64.43803499999922,64.43803499999922,c,1,0.6900506000019959,480718,001,2022-09-30_07h10.21.682,motor sequence learning,2022.2.2,59.998584034858226,
-150,z,4,3,19,3,,,,,65.1546049000026,66.15432610000425,66.15432610000425,66.15432610000425,66.15432610000425,66.15432610000425,67.15551630000118,67.15551630000118,z,1,0.676588599999377,480718,001,2022-09-30_07h10.21.682,motor sequence learning,2022.2.2,59.998584034858226,
-50,x,5,0,20,0,,,,,67.85453029999917,68.85476090000157,68.85476090000157,68.85476090000157,68.85476090000157,68.85476090000157,69.8542718000026,69.8542718000026,x,1,0.6378516999975545,480718,001,2022-09-30_07h10.21.682,motor sequence learning,2022.2.2,59.998584034858226,
150,v,5,1,21,1,,,,,70.52128310000262,71.52137200000288,71.52137200000288,71.52137200000288,71.52137200000288,71.52137200000288,72.52133370000229,72.52133370000229,v,1,0.8276307999985875,480718,001,2022-09-30_07h10.21.682,motor sequence learning,2022.2.2,59.998584034858226,
50,c,5,2,22,2,,,,,73.37139269999898,74.37167800000316,74.37167800000316,74.37167800000316,74.37167800000316,74.37167800000316,75.372254599999,75.372254599999,c,1,0.8381818999987445,480718,001,2022-09-30_07h10.21.682,motor sequence learning,2022.2.2,59.998584034858226,
-150,z,5,3,23,3,,,,,76.23779620000278,77.23805410000205,77.23805410000205,77.23805410000205,77.23805410000205,77.23805410000205,78.2419762999998,78.2419762999998,z,1,0.6974913999947603,480718,001,2022-09-30_07h10.21.682,motor sequence learning,2022.2.2,59.998584034858226,
-50,x,6,0,24,0,,,,,78.97136170000158,79.97141940000438,79.97141940000438,79.97141940000438,79.97141940000438,79.97141940000438,80.97129330000462,80.97129330000462,x,1,0.7999205000014626,480718,001,2022-09-30_07h10.21.682,motor sequence learning,2022.2.2,59.998584034858226,
150,v,6,1,25,1,,,,,81.78796259999945,82.78819450000447,82.78819450000447,82.78819450000447,82.78819450000447,82.78819450000447,83.78809470000124,83.78809470000124,v,1,1.8393050000013318,480718,001,2022-09-30_07h10.21.682,motor sequence learning,2022.2.2,59.998584034858226,
50,c,6,2,26,2,,,,,85.65489410000009,86.65480119999847,86.65480119999847,86.65480119999847,86.65480119999847,86.65480119999847,87.6549862000029,87.6549862000029,c,1,1.216995599999791,480718,001,2022-09-30_07h10.21.682,motor sequence learning,2022.2.2,59.998584034858226,
-150,z,6,3,27,3,,,,,88.90457130000141,89.9063055000006,89.9063055000006,89.9063055000006,89.9063055000006,89.9063055000006,90.90462149999803,90.90462149999803,z,1,0.7993467999986024,480718,001,2022-09-30_07h10.21.682,motor sequence learning,2022.2.2,59.998584034858226,
-50,x,7,0,28,0,,,,,91.72140670000226,92.72150849999889,92.72150849999889,92.72150849999889,92.72150849999889,92.72150849999889,93.72147109999787,93.72147109999787,x,1,0.4844152000005124,480718,001,2022-09-30_07h10.21.682,motor sequence learning,2022.2.2,59.998584034858226,
150,v,7,1,29,1,,,,,94.23807540000416,95.23818320000282,95.23818320000282,95.23818320000282,95.23818320000282,95.23818320000282,96.23795999999857,96.23795999999857,v,1,0.7758432999980869,480718,001,2022-09-30_07h10.21.682,motor sequence learning,2022.2.2,59.998584034858226,
50,c,7,2,30,2,,,,,97.03813510000327,98.03816460000235,98.03816460000235,98.03816460000235,98.03816460000235,98.03816460000235,99.0380159999986,99.0380159999986,c,1,0.6713722999920719,480718,001,2022-09-30_07h10.21.682,motor sequence learning,2022.2.2,59.998584034858226,
-150,z,7,3,31,3,,,,,99.73797270000068,100.73829919999844,100.73829919999844,100.73829919999844,100.73829919999844,100.73829919999844,101.73808600000484,101.73808600000484,z,1,0.7933185000001686,480718,001,2022-09-30_07h10.21.682,motor sequence learning,2022.2.2,59.998584034858226,
-50,x,8,0,32,0,,,,,102.55477690000407,103.55484689999867,103.55484689999867,103.55484689999867,103.55484689999867,103.55484689999867,104.55759879999823,104.55759879999823,x,1,0.42782839999563294,480718,001,2022-09-30_07h10.21.682,motor sequence learning,2022.2.2,59.998584034858226,
150,v,8,1,33,1,,,,,105.00480880000396,106.00497850000102,106.00497850000102,106.00497850000102,106.00497850000102,106.00497850000102,107.00476110000454,107.00476110000454,v,1,0.7193252999932156,480718,001,2022-09-30_07h10.21.682,motor sequence learning,2022.2.2,59.998584034858226,
50,c,8,2,34,2,,,,,107.75465670000267,108.75508709999849,108.75508709999849,108.75508709999849,108.75508709999849,108.75508709999849,109.75470270000369,109.75470270000369,c,1,0.7558011000000988,480718,001,2022-09-30_07h10.21.682,motor sequence learning,2022.2.2,59.998584034858226,
-150,z,8,3,35,3,,,,,110.53802590000123,111.5381888999982,111.5381888999982,111.5381888999982,111.5381888999982,111.5381888999982,112.538077600002,112.538077600002,z,1,0.7670427999983076,480718,001,2022-09-30_07h10.21.682,motor sequence learning,2022.2.2,59.998584034858226,
-50,x,9,0,36,0,,,,,113.32148980000056,114.32135959999869,114.32135959999869,114.32135959999869,114.32135959999869,114.32135959999869,115.3215229999987,115.3215229999987,x,1,0.4493698999940534,480718,001,2022-09-30_07h10.21.682,motor sequence learning,2022.2.2,59.998584034858226,
150,v,9,1,37,1,,,,,115.78839380000136,116.78820619999897,116.78820619999897,116.78820619999897,116.78820619999897,116.78820619999897,117.78807239999878,117.78807239999878,v,1,0.8687138999957824,480718,001,2022-09-30_07h10.21.682,motor sequence learning,2022.2.2,59.998584034858226,
50,c,9,2,38,2,,,,,118.68808459999855,119.68813539999974,119.68813539999974,119.68813539999974,119.68813539999974,119.68813539999974,120.68821729999763,120.68821729999763,c,1,0.6080492999972194,480718,001,2022-09-30_07h10.21.682,motor sequence learning,2022.2.2,59.998584034858226,
-150,z,9,3,39,3,,,,,121.32152990000031,122.32158049999998,122.32158049999998,122.32158049999998,122.32158049999998,122.32158049999998,123.32146369999828,123.32146369999828,z,1,0.7151044999991427,480718,001,2022-09-30_07h10.21.682,motor sequence learning,2022.2.2,59.998584034858226,
-50,x,10,0,40,0,,,,,124.05483210000239,125.05501370000275,125.05501370000275,125.05501370000275,125.05501370000275,125.05501370000275,126.05499570000393,126.05499570000393,x,1,0.4000277000013739,480718,001,2022-09-30_07h10.21.682,motor sequence learning,2022.2.2,59.998584034858226,
150,v,10,1,41,1,,,,,126.47141009999905,127.47169959999883,127.47169959999883,127.47169959999883,127.47169959999883,127.47169959999883,128.47165520000271,128.47165520000271,v,1,0.820621899998514,480718,001,2022-09-30_07h10.21.682,motor sequence learning,2022.2.2,59.998584034858226,
50,c,10,2,42,2,,,,,129.32159440000396,130.32163720000244,130.32163720000244,130.32163720000244,130.32163720000244,130.32163720000244,131.3215468999988,131.3215468999988,c,1,0.5310046000013244,480718,001,2022-09-30_07h10.21.682,motor sequence learning,2022.2.2,59.998584034858226,
-150,z,10,3,43,3,,,,,131.87158930000442,132.87147769999865,132.87147769999865,132.87147769999865,132.87147769999865,132.87147769999865,133.8715807999979,133.8715807999979,z,1,0.670367200000328,480718,001,2022-09-30_07h10.21.682,motor sequence learning,2022.2.2,59.998584034858226,
-50,x,11,0,44,0,,,,,134.57155900000362,135.57184540000162,135.57184540000162,135.57184540000162,135.57184540000162,135.57184540000162,136.57158370000252,136.57158370000252,x,1,0.47171249999519205,480718,001,2022-09-30_07h10.21.682,motor sequence learning,2022.2.2,59.998584034858226,
150,v,11,1,45,1,,,,,137.07153980000294,138.07162059999973,138.07162059999973,138.07162059999973,138.07162059999973,138.07162059999973,139.07148179999785,139.07148179999785,v,1,0.9251224999970873,480718,001,2022-09-30_07h10.21.682,motor sequence learning,2022.2.2,59.998584034858226,
50,c,11,2,46,2,,,,,140.02149220000138,141.0215845999992,141.0215845999992,141.0215845999992,141.0215845999992,141.0215845999992,142.0215154000034,142.0215154000034,c,1,0.6451729999971576,480718,001,2022-09-30_07h10.21.682,motor sequence learning,2022.2.2,59.998584034858226,
-150,z,11,3,47,3,,,,,142.68812120000075,143.6883170000001,143.6883170000001,143.6883170000001,143.6883170000001,143.6883170000001,144.68840700000146,144.68840700000146,z,1,0.6058453999939957,480718,001,2022-09-30_07h10.21.682,motor sequence learning,2022.2.2,59.998584034858226,
-50,x,12,0,48,0,,,,,145.32158889999846,146.3229332999981,146.3229332999981,146.3229332999981,146.3229332999981,146.3229332999981,147.3215487999987,147.3215487999987,x,1,1.0148845999938203,480718,001,2022-09-30_07h10.21.682,motor sequence learning,2022.2.2,59.998584034858226,
150,v,12,1,49,1,,,,,148.35495639999863,149.35495380000066,149.35495380000066,149.35495380000066,149.35495380000066,149.35495380000066,150.3549004000015,150.3549004000015,v,1,1.374341499998991,480718,001,2022-09-30_07h10.21.682,motor sequence learning,2022.2.2,59.998584034858226,
50,c,12,2,50,2,,,,,151.7548616999993,152.75514430000476,152.75514430000476,152.75514430000476,152.75514430000476,152.75514430000476,153.75486050000472,153.75486050000472,c,1,1.2223069999963627,480718,001,2022-09-30_07h10.21.682,motor sequence learning,2022.2.2,59.998584034858226,
-150,z,12,3,51,3,,,,,155.0048616999993,156.00530330000038,156.00530330000038,156.00530330000038,156.00530330000038,156.00530330000038,157.00501069999882,157.00501069999882,z,1,0.8416616999966209,480718,001,2022-09-30_07h10.21.682,motor sequence learning,2022.2.2,59.998584034858226,
-50,x,13,0,52,0,,,,,157.87188170000445,158.87170490000426,158.87170490000426,158.87170490000426,158.87170490000426,158.87170490000426,159.87153290000424,159.87153290000424,x,1,0.5120877000008477,480718,001,2022-09-30_07h10.21.682,motor sequence learning,2022.2.2,59.998584034858226,
150,v,13,1,53,1,,,,,160.4050414000012,161.40508070000215,161.40508070000215,161.40508070000215,161.40508070000215,161.40508070000215,162.40502389999892,162.40502389999892,v,1,0.78179629999795,480718,001,2022-09-30_07h10.21.682,motor sequence learning,2022.2.2,59.998584034858226,
50,c,13,2,54,2,,,,,163.2050334000014,164.20516040000075,164.20516040000075,164.20516040000075,164.20516040000075,164.20516040000075,165.20492930000182,165.20492930000182,c,1,0.5839659999983269,480718,001,2022-09-30_07h10.21.682,motor sequence learning,2022.2.2,59.998584034858226,
-150,z,13,3,55,3,,,,,165.82148360000429,166.82183580000128,166.82183580000128,166.82183580000128,166.82183580000128,166.82183580000128,167.82174790000136,167.82174790000136,z,1,0.7286578999919584,480718,001,2022-09-30_07h10.21.682,motor sequence learning,2022.2.2,59.998584034858226,
-50,x,14,0,56,0,,,,,168.57168690000253,169.57175519999873,169.57175519999873,169.57175519999873,169.57175519999873,169.57175519999873,170.5717680000016,170.5717680000016,x,1,0.5417482999982894,480718,001,2022-09-30_07h10.21.682,motor sequence learning,2022.2.2,59.998584034858226,
150,v,14,1,57,1,,,,,171.13827899999887,172.13855689999764,172.13855689999764,172.13855689999764,172.13855689999764,172.13855689999764,173.13829850000184,173.13829850000184,v,1,0.8351842999982182,480718,001,2022-09-30_07h10.21.682,motor sequence learning,2022.2.2,59.998584034858226,
50,c,14,2,58,2,,,,,174.00489380000363,175.00518990000273,175.00518990000273,175.00518990000273,175.00518990000273,175.00518990000273,176.00523059999978,176.00523059999978,c,1,0.5690345999973943,480718,001,2022-09-30_07h10.21.682,motor sequence learning,2022.2.2,59.998584034858226,
-150,z,14,3,59,3,,,,,176.60494219999964,177.60496940000303,177.60496940000303,177.60496940000303,177.60496940000303,177.60496940000303,178.6049897000048,178.6049897000048,z,1,0.6990356000023894,480718,001,2022-09-30_07h10.21.682,motor sequence learning,2022.2.2,59.998584034858226,
-50,x,15,0,60,0,,,,,179.3216670000038,180.32178730000305,180.32178730000305,180.32178730000305,180.32178730000305,180.32178730000305,181.32183459999942,181.32183459999942,x,1,0.38356719999865163,480718,001,2022-09-30_07h10.21.682,motor sequence learning,2022.2.2,59.998584034858226,
150,v,15,1,61,1,,,,,181.72174449999875,182.72180990000197,182.72180990000197,182.72180990000197,182.72180990000197,182.72180990000197,183.72173900000053,183.72173900000053,v,1,0.7387065999937477,480718,001,2022-09-30_07h10.21.682,motor sequence learning,2022.2.2,59.998584034858226,
50,c,15,2,62,2,,,,,184.4883375999998,185.4885565000004,185.4885565000004,185.4885565000004,185.4885565000004,185.4885565000004,186.4884396999987,186.4884396999987,c,1,0.6354485999981989,480718,001,2022-09-30_07h10.21.682,motor sequence learning,2022.2.2,59.998584034858226,
-150,z,15,3,63,3,,,,,187.1550933000035,188.1552206999986,188.1552206999986,188.1552206999986,188.1552206999986,188.1552206999986,189.15518829999928,189.15518829999928,z,1,0.7038617999933194,480718,001,2022-09-30_07h10.21.682,motor sequence learning,2022.2.2,59.998584034858226,
-50,x,16,0,64,0,,,,,189.88841330000287,190.88855329999933,190.88855329999933,190.88855329999933,190.88855329999933,190.88855329999933,191.88835529999778,191.88835529999778,x,1,0.4894505999982357,480718,001,2022-09-30_07h10.21.682,motor sequence learning,2022.2.2,59.998584034858226,
150,v,16,1,65,1,,,,,192.4050447000045,193.40545250000287,193.40545250000287,193.40545250000287,193.40545250000287,193.40545250000287,194.40518529999827,194.40518529999827,v,1,0.7227017999975942,480718,001,2022-09-30_07h10.21.682,motor sequence learning,2022.2.2,59.998584034858226,
50,c,16,2,66,2,,,,,195.15497360000154,196.15518249999877,196.15518249999877,196.15518249999877,196.15518249999877,196.15518249999877,197.1551202999981,197.1551202999981,c,1,0.6462510999990627,480718,001,2022-09-30_07h10.21.682,motor sequence learning,2022.2.2,59.998584034858226,
-150,z,16,3,67,3,,,,,197.82168459999957,198.82213000000047,198.82213000000047,198.82213000000047,198.82213000000047,198.82213000000047,199.82165710000118,199.82165710000118,z,1,0.5896371999988332,480718,001,2022-09-30_07h10.21.682,motor sequence learning,2022.2.2,59.998584034858226,
-50,x,17,0,68,0,,,,,200.43850519999978,201.43835209999816,201.43835209999816,201.43835209999816,201.43835209999816,201.43835209999816,202.43867960000352,202.43867960000352,x,1,0.7100221000000602,480718,001,2022-09-30_07h10.21.682,motor sequence learning,2022.2.2,59.998584034858226,
150,v,17,1,69,1,,,,,203.1718894000005,204.17183130000194,204.17183130000194,204.17183130000194,204.17183130000194,204.17183130000194,205.17187089999788,205.17187089999788,v,1,0.7461554999972577,480718,001,2022-09-30_07h10.21.682,motor sequence learning,2022.2.2,59.998584034858226,
50,c,17,2,70,2,,,,,205.93843249999918,206.93842230000155,206.93842230000155,206.93842230000155,206.93842230000155,206.93842230000155,207.93869429999904,207.93869429999904,c,1,0.6027096000034362,480718,001,2022-09-30_07h10.21.682,motor sequence learning,2022.2.2,59.998584034858226,
-150,z,17,3,71,3,,,,,208.57183680000162,209.57194000000163,209.57194000000163,209.57194000000163,209.57194000000163,209.57194000000163,210.57172639999771,210.57172639999771,z,1,0.600427999997919,480718,001,2022-09-30_07h10.21.682,motor sequence learning,2022.2.2,59.998584034858226,
-50,x,18,0,72,0,,,,,211.18851500000164,212.1884682000018,212.1884682000018,212.1884682000018,212.1884682000018,212.1884682000018,213.18844199999876,213.18844199999876,x,1,1.1231650999980047,480718,001,2022-09-30_07h10.21.682,motor sequence learning,2022.2.2,59.998584034858226,
150,v,18,1,73,1,,,,,214.33848150000267,215.3386277000027,215.3386277000027,215.3386277000027,215.3386277000027,215.3386277000027,216.33846020000055,216.33846020000055,v,1,0.8185334000008879,480718,001,2022-09-30_07h10.21.682,motor sequence learning,2022.2.2,59.998584034858226,
50,c,18,2,74,2,,,,,217.1883725000007,218.18860539999878,218.18860539999878,218.18860539999878,218.18860539999878,218.18860539999878,219.18840780000028,219.18840780000028,c,1,0.785944199997175,480718,001,2022-09-30_07h10.21.682,motor sequence learning,2022.2.2,59.998584034858226,
-150,z,18,3,75,3,,,,,220.00506780000433,221.00539270000445,221.00539270000445,221.00539270000445,221.00539270000445,221.00539270000445,222.00543250000192,222.00543250000192,z,1,0.7766014000007999,480718,001,2022-09-30_07h10.21.682,motor sequence learning,2022.2.2,59.998584034858226,
-50,x,19,0,76,0,,,,,222.80524439999863,223.80529620000016,223.80529620000016,223.80529620000016,223.80529620000016,223.80529620000016,224.80509539999912,224.80509539999912,x,1,0.4347857000029762,480718,001,2022-09-30_07h10.21.682,motor sequence learning,2022.2.2,59.998584034858226,
150,v,19,1,77,1,,,,,225.27192289999948,226.27194880000025,226.27194880000025,226.27194880000025,226.27194880000025,226.27194880000025,227.2719195000027,227.2719195000027,v,1,0.801827699993737,480718,001,2022-09-30_07h10.21.682,motor sequence learning,2022.2.2,59.998584034858226,
50,c,19,2,78,2,,,,,228.10521130000416,229.10536600000341,229.10536600000341,229.10536600000341,229.10536600000341,229.10536600000341,230.1052348000012,230.1052348000012,c,1,0.6565046000032453,480718,001,2022-09-30_07h10.21.682,motor sequence learning,2022.2.2,59.998584034858226,
-150,z,19,3,79,3,,,,,230.7883806000027,231.7887725000037,231.7887725000037,231.7887725000037,231.7887725000037,231.7887725000037,232.78868080000393,232.78868080000393,z,1,0.7692135999968741,480718,001,2022-09-30_07h10.21.682,motor sequence learning,2022.2.2,59.998584034858226,
-50,x,20,0,80,0,,,,,233.58847580000293,234.5887720000028,234.5887720000028,234.5887720000028,234.5887720000028,234.5887720000028,235.58860350000032,235.58860350000032,x,1,0.3762365999937174,480718,001,2022-09-30_07h10.21.682,motor sequence learning,2022.2.2,59.998584034858226,
150,v,20,1,81,1,,,,,235.98858589999872,236.98865680000017,236.98865680000017,236.98865680000017,236.98865680000017,236.98865680000017,237.98831500000233,237.98831500000233,v,1,0.7902970999930403,480718,001,2022-09-30_07h10.21.682,motor sequence learning,2022.2.2,59.998584034858226,
50,c,20,2,82,2,,,,,238.80535809999856,239.80534980000084,239.80534980000084,239.80534980000084,239.80534980000084,239.80534980000084,240.80522259999998,240.80522259999998,c,1,0.8663774999949965,480718,001,2022-09-30_07h10.21.682,motor sequence learning,2022.2.2,59.998584034858226,
-150,z,20,3,83,3,,,,,241.6884829999981,242.68871729999955,242.68871729999955,242.68871729999955,242.68871729999955,242.68871729999955,243.6887332999977,243.6887332999977,z,1,0.7500428999992437,480718,001,2022-09-30_07h10.21.682,motor sequence learning,2022.2.2,59.998584034858226,
-50,x,21,0,84,0,,,,,244.4552077000044,245.45541329999833,245.45541329999833,245.45541329999833,245.45541329999833,245.45541329999833,246.45521310000186,246.45521310000186,x,1,0.6854726000019582,480718,001,2022-09-30_07h10.21.682,motor sequence learning,2022.2.2,59.998584034858226,
150,v,21,1,85,1,,,,,247.17183970000042,248.17214830000012,248.17214830000012,248.17214830000012,248.17214830000012,248.17214830000012,249.17200640000374,249.17200640000374,v,1,0.8022886999970069,480718,001,2022-09-30_07h10.21.682,motor sequence learning,2022.2.2,59.998584034858226,
50,c,21,2,86,2,,,,,250.00523480000265,251.0052663000024,251.0052663000024,251.0052663000024,251.0052663000024,251.0052663000024,252.00760170000285,252.00760170000285,c,1,0.6562991999962833,480718,001,2022-09-30_07h10.21.682,motor sequence learning,2022.2.2,59.998584034858226,
-150,z,21,3,87,3,,,,,252.68857430000207,253.68859879999945,253.68859879999945,253.68859879999945,253.68859879999945,253.68859879999945,254.68856159999996,254.68856159999996,z,1,0.7026086999976542,480718,001,2022-09-30_07h10.21.682,motor sequence learning,2022.2.2,59.998584034858226,
-50,x,22,0,88,0,,,,,255.42188159999932,256.4218929999988,256.4218929999988,256.4218929999988,256.4218929999988,256.4218929999988,257.42186590000347,257.42186590000347,x,1,0.5213156000027084,480718,001,2022-09-30_07h10.21.682,motor sequence learning,2022.2.2,59.998584034858226,
150,v,22,1,89,1,,,,,257.9718914000041,258.972056300001,258.972056300001,258.972056300001,258.972056300001,258.972056300001,259.97196120000444,259.97196120000444,v,1,0.7191646999926888,480718,001,2022-09-30_07h10.21.682,motor sequence learning,2022.2.2,59.998584034858226,
50,c,22,2,90,2,,,,,260.722122500003,261.7222028000033,261.7222028000033,261.7222028000033,261.7222028000033,261.7222028000033,262.72201510000014,262.72201510000014,c,1,1.1529908000011346,480718,001,2022-09-30_07h10.21.682,motor sequence learning,2022.2.2,59.998584034858226,
-150,z,22,3,91,3,,,,,263.90523499999836,264.9055124000006,264.9055124000006,264.9055124000006,264.9055124000006,264.9055124000006,265.9053442000004,265.9053442000004,z,1,0.6507357000009506,480718,001,2022-09-30_07h10.21.682,motor sequence learning,2022.2.2,59.998584034858226,
-50,x,23,0,92,0,,,,,266.58863230000134,267.58878740000364,267.58878740000364,267.58878740000364,267.58878740000364,267.58878740000364,268.58875600000465,268.58875600000465,x,1,0.6762237999937497,480718,001,2022-09-30_07h10.21.682,motor sequence learning,2022.2.2,59.998584034858226,
150,v,23,1,93,1,,,,,269.2885896000007,270.2889077,270.2889077,270.2889077,270.2889077,270.2889077,271.2886419999995,271.2886419999995,v,1,1.4392398999916622,480718,001,2022-09-30_07h10.21.682,motor sequence learning,2022.2.2,59.998584034858226,
50,c,23,2,94,2,,,,,272.7554814000032,273.75561639999796,273.75561639999796,273.75561639999796,273.75561639999796,273.75561639999796,274.75552620000235,274.75552620000235,c,1,0.9582230999949388,480718,001,2022-09-30_07h10.21.682,motor sequence learning,2022.2.2,59.998584034858226,
-150,z,23,3,95,3,,,,,275.7386447000026,276.73890830000164,276.73890830000164,276.73890830000164,276.73890830000164,276.73890830000164,277.7388651000001,277.7388651000001,z,1,0.7015858000013395,480718,001,2022-09-30_07h10.21.682,motor sequence learning,2022.2.2,59.998584034858226,
-150,z,,,,,0,0,0,3,278.46195720000105,279.4562182000009,279.4562182000009,279.4562182000009,279.4562182000009,279.47204420000344,280.4556320000047,280.4556320000047,z,1,9.887689899995166,480718,001,2022-09-30_07h10.21.682,motor sequence learning,2022.2.2,59.998584034858226,
50,c,,,,,0,1,1,2,290.3720414999989,291.3724493000045,291.3724493000045,291.3724493000045,291.3724493000045,291.3724493000045,292.37229490000027,292.37229490000027,c,1,7.7519739999988815,480718,001,2022-09-30_07h10.21.682,motor sequence learning,2022.2.2,59.998584034858226,
50,c,,,,,0,2,2,2,300.15539710000303,301.1556090000013,301.1556090000013,301.1556090000013,301.1556090000013,301.1556090000013,302.1556438000043,302.1556438000043,c,1,1.246342200000072,480718,001,2022-09-30_07h10.21.682,motor sequence learning,2022.2.2,59.998584034858226,
-50,x,,,,,0,3,3,0,303.4221728000048,304.4223912000016,304.4223912000016,304.4223912000016,304.4223912000016,304.4223912000016,305.4223545999994,305.4223545999994,x,1,0.8856285000001662,480718,001,2022-09-30_07h10.21.682,motor sequence learning,2022.2.2,59.998584034858226,
-150,z,,,,,1,0,4,3,306.33911040000385,307.3388655000017,307.3388655000017,307.3388655000017,307.3388655000017,307.3388655000017,308.3388955000046,308.3388955000046,z,1,0.7947768999947584,480718,001,2022-09-30_07h10.21.682,motor sequence learning,2022.2.2,59.998584034858226,
-50,x,,,,,1,1,5,0,309.1554823999977,310.1555173000015,310.1555173000015,310.1555173000015,310.1555173000015,310.1555173000015,311.1555825000032,311.1555825000032,x,1,1.4439667999977246,480718,001,2022-09-30_07h10.21.682,motor sequence learning,2022.2.2,59.998584034858226,
-50,x,,,,,1,2,6,0,312.62208980000287,313.62240810000367,313.62240810000367,313.62240810000367,313.62240810000367,313.62240810000367,314.62225140000373,314.62225140000373,x,1,0.4758746000006795,480718,001,2022-09-30_07h10.21.682,motor sequence learning,2022.2.2,59.998584034858226,
50,c,,,,,1,3,7,2,315.1220730999994,316.12243899999885,316.12243899999885,316.12243899999885,316.12243899999885,316.12243899999885,317.12215730000025,317.12215730000025,c,1,1.7728012000006856,480718,001,2022-09-30_07h10.21.682,motor sequence learning,2022.2.2,59.998584034858226,
-150,z,,,,,2,0,8,3,318.92212180000206,319.92298519999895,319.92298519999895,319.92298519999895,319.92298519999895,319.92298519999895,320.9222582000002,320.9222582000002,z,1,0.880301999997755,480718,001,2022-09-30_07h10.21.682,motor sequence learning,2022.2.2,59.998584034858226,
-150,z,,,,,2,1,9,3,321.82217250000394,322.8224287000048,322.8224287000048,322.8224287000048,322.8224287000048,322.8224287000048,323.8222650000025,323.8222650000025,z,1,16.008989799993287,480718,001,2022-09-30_07h10.21.682,motor sequence learning,2022.2.2,59.998584034858226,
-150,z,,,,,2,2,10,3,339.85556570000335,340.85576610000135,340.85576610000135,340.85576610000135,340.85576610000135,340.85576610000135,341.85559790000116,341.85559790000116,z,1,0.5038700999939465,480718,001,2022-09-30_07h10.21.682,motor sequence learning,2022.2.2,59.998584034858226,
-150,z,,,,,2,3,11,3,342.3889732000025,343.389242199999,343.389242199999,343.389242199999,343.389242199999,343.389242199999,344.3890775000036,344.3890775000036,z,1,9.228327899996657,480718,001,2022-09-30_07h10.21.682,motor sequence learning,2022.2.2,59.998584034858226,
150,v,,,,,3,0,12,1,353.63888959999895,354.6392024000015,354.6392024000015,354.6392024000015,354.6392024000015,354.6392024000015,355.6389859000046,355.6389859000046,v,1,1.4350191999983508,480718,001,2022-09-30_07h10.21.682,motor sequence learning,2022.2.2,59.998584034858226,
-150,z,,,,,3,1,13,3,357.105639100002,358.1057389999987,358.1057389999987,358.1057389999987,358.1057389999987,358.1057389999987,359.10562039999786,359.10562039999786,z,1,1.0148956999983056,480718,001,2022-09-30_07h10.21.682,motor sequence learning,2022.2.2,59.998584034858226,
150,v,,,,,3,2,14,1,360.1391885999983,361.13913100000354,361.13913100000354,361.13913100000354,361.13913100000354,361.13913100000354,362.13908710000396,362.13908710000396,v,1,1.1480192000017269,480718,001,2022-09-30_07h10.21.682,motor sequence learning,2022.2.2,59.998584034858226,
150,v,,,,,3,3,15,1,363.3056177000035,364.3060257000034,364.3060257000034,364.3060257000034,364.3060257000034,364.3060257000034,365.3058693999992,365.3058693999992,v,1,0.9519747000013012,480718,001,2022-09-30_07h10.21.682,motor sequence learning,2022.2.2,59.998584034858226,
-50,x,,,,,4,0,16,0,366.28873320000275,367.2889962000045,367.2889962000045,367.2889962000045,367.2889962000045,367.2889962000045,368.2892137000017,368.2892137000017,x,1,0.9069135000027018,480718,001,2022-09-30_07h10.21.682,motor sequence learning,2022.2.2,59.998584034858226,
-150,z,,,,,4,1,17,3,369.2224380999978,370.2224703000029,370.2224703000029,370.2224703000029,370.2224703000029,370.2224703000029,371.22247680000146,371.22247680000146,z,1,0.787569899999653,480718,001,2022-09-30_07h10.21.682,motor sequence learning,2022.2.2,59.998584034858226,
50,c,,,,,4,2,18,2,372.0390393999987,373.03924689999985,373.03924689999985,373.03924689999985,373.03924689999985,373.03924689999985,374.0392040000006,374.0392040000006,c,1,0.8669320999979391,480718,001,2022-09-30_07h10.21.682,motor sequence learning,2022.2.2,59.998584034858226,
50,c,,,,,4,3,19,2,374.9223888999986,375.922627699998,375.922627699998,375.922627699998,375.922627699998,375.922627699998,376.9225746000011,376.9225746000011,c,1,0.8282001999978092,480718,001,2022-09-30_07h10.21.682,motor sequence learning,2022.2.2,59.998584034858226,
-50,x,,,,,5,0,20,0,377.77241030000005,378.7726832000044,378.7726832000044,378.7726832000044,378.7726832000044,378.7726832000044,379.7723918999982,379.7723918999982,x,1,0.7231040999977267,480718,001,2022-09-30_07h10.21.682,motor sequence learning,2022.2.2,59.998584034858226,
-150,z,,,,,5,1,21,3,380.52240729999903,381.52277409999806,381.52277409999806,381.52277409999806,381.52277409999806,381.52277409999806,382.5224999999991,382.5224999999991,z,1,0.938232299995434,480718,001,2022-09-30_07h10.21.682,motor sequence learning,2022.2.2,59.998584034858226,
-150,z,,,,,5,2,22,3,383.48905319999903,384.4892843999987,384.4892843999987,384.4892843999987,384.4892843999987,384.4892843999987,385.4891912000021,385.4891912000021,z,1,0.6796402000036323,480718,001,2022-09-30_07h10.21.682,motor sequence learning,2022.2.2,59.998584034858226,
50,c,,,,,5,3,23,2,386.18917599999986,387.1902151000031,387.1902151000031,387.1902151000031,387.1902151000031,387.1902151000031,388.189079900003,388.189079900003,c,1,1.0065784999969765,480718,001,2022-09-30_07h10.21.682,motor sequence learning,2022.2.2,59.998584034858226,
50,c,,,,,6,0,24,2,389.2224529000014,390.22274959999777,390.22274959999777,390.22274959999777,390.22274959999777,390.22274959999777,391.22237219999806,391.22237219999806,c,1,1.1702893000037875,480718,001,2022-09-30_07h10.21.682,motor sequence learning,2022.2.2,59.998584034858226,
-50,x,,,,,6,1,25,0,392.42237690000184,393.4226381000044,393.4226381000044,393.4226381000044,393.4226381000044,393.4226381000044,394.42257059999974,394.42257059999974,x,1,0.7848802999942563,480718,001,2022-09-30_07h10.21.682,motor sequence learning,2022.2.2,59.998584034858226,
-150,z,,,,,6,2,26,3,395.23918270000286,396.23948499999824,396.23948499999824,396.23948499999824,396.23948499999824,396.23948499999824,397.2390258000014,397.2390258000014,z,1,12.38235330000316,480718,001,2022-09-30_07h10.21.682,motor sequence learning,2022.2.2,59.998584034858226,
-50,x,,,,,6,3,27,0,409.63912459999847,410.639457199999,410.639457199999,410.639457199999,410.639457199999,410.639457199999,411.63927060000424,411.63927060000424,x,1,0.7718715999944834,480718,001,2022-09-30_07h10.21.682,motor sequence learning,2022.2.2,59.998584034858226,
-50,x,,,,,7,0,28,0,412.4392267000003,413.43916719999834,413.43916719999834,413.43916719999834,413.43916719999834,413.43916719999834,414.439317700002,414.439317700002,x,1,0.7835415000008652,480718,001,2022-09-30_07h10.21.682,motor sequence learning,2022.2.2,59.998584034858226,
50,c,,,,,7,1,29,2,415.23918550000235,416.2393072999985,416.2393072999985,416.2393072999985,416.2393072999985,416.2393072999985,417.2392464000004,417.2392464000004,c,1,0.9502213000014308,480718,001,2022-09-30_07h10.21.682,motor sequence learning,2022.2.2,59.998584034858226,
-50,x,,,,,7,2,30,0,418.20589689999906,419.20624210000096,419.20624210000096,419.20624210000096,419.20624210000096,419.20624210000096,420.20594079999864,420.20594079999864,x,1,0.8152943999957643,480718,001,2022-09-30_07h10.21.682,motor sequence learning,2022.2.2,59.998584034858226,
50,c,,,,,7,3,31,2,421.03926910000155,422.0392070000016,422.0392070000016,422.0392070000016,422.0392070000016,422.0392070000016,423.03934400000435,423.03934400000435,c,1,0.6724090999923646,480718,001,2022-09-30_07h10.21.682,motor sequence learning,2022.2.2,59.998584034858226,
50,c,,,,,8,0,32,2,423.7393338000038,424.73962459999893,424.73962459999893,424.73962459999893,424.73962459999893,424.73962459999893,425.7393804000021,425.7393804000021,c,1,0.5673154999967664,480718,001,2022-09-30_07h10.21.682,motor sequence learning,2022.2.2,59.998584034858226,
-150,z,,,,,8,1,33,3,426.3392126000035,427.33948390000296,427.33948390000296,427.33948390000296,427.33948390000296,427.33948390000296,428.3394143999976,428.3394143999976,z,1,2.8737009999967995,480718,001,2022-09-30_07h10.21.682,motor sequence learning,2022.2.2,59.998584034858226,
-50,x,,,,,8,2,34,0,431.23931430000084,432.23941950000153,432.23941950000153,432.23941950000153,432.23941950000153,432.23941950000153,433.23936890000186,433.23936890000186,x,1,0.6579827000023215,480718,001,2022-09-30_07h10.21.682,motor sequence learning,2022.2.2,59.998584034858226,
50,c,,,,,8,3,35,2,433.9226013000007,434.9227924000006,434.9227924000006,434.9227924000006,434.9227924000006,434.9227924000006,435.9225501000037,435.9225501000037,c,1,0.6277390000032028,480718,001,2022-09-30_07h10.21.682,motor sequence learning,2022.2.2,59.998584034858226,
-150,z,,,,,9,0,36,3,436.57267480000155,437.5727377000003,437.5727377000003,437.5727377000003,437.5727377000003,437.5727377000003,438.572691100002,438.572691100002,z,1,0.699727699997311,480718,001,2022-09-30_07h10.21.682,motor sequence learning,2022.2.2,59.998584034858226,
-50,x,,,,,9,1,37,0,439.2892299000014,440.2894976000025,440.2894976000025,440.2894976000025,440.2894976000025,440.2894976000025,441.28923000000214,441.28923000000214,x,1,0.7940100999985589,480718,001,2022-09-30_07h10.21.682,motor sequence learning,2022.2.2,59.998584034858226,
-50,x,,,,,9,2,38,0,442.10594149999815,443.10598420000315,443.10598420000315,443.10598420000315,443.10598420000315,443.10598420000315,444.10594539999875,444.10594539999875,x,1,5.309479299998202,480718,001,2022-09-30_07h10.21.682,motor sequence learning,2022.2.2,59.998584034858226,
150,v,,,,,9,3,39,1,449.4391930999991,450.4395119000037,450.4395119000037,450.4395119000037,450.4395119000037,450.4395119000037,451.4393033000015,451.4393033000015,v,1,0.7672726000018883,480718,001,2022-09-30_07h10.21.682,motor sequence learning,2022.2.2,59.998584034858226,
-150,z,,,,,10,0,40,3,452.22279790000175,453.2229201000009,453.2229201000009,453.2229201000009,453.2229201000009,453.2229201000009,454.2226721000043,454.2226721000043,z,1,0.7093125999963377,480718,001,2022-09-30_07h10.21.682,motor sequence learning,2022.2.2,59.998584034858226,
50,c,,,,,10,1,41,2,454.95617750000383,455.95664280000346,455.95664280000346,455.95664280000346,455.95664280000346,455.95664280000346,456.95636750000267,456.95636750000267,c,1,0.7097392999930889,480718,001,2022-09-30_07h10.21.682,motor sequence learning,2022.2.2,59.998584034858226,
150,v,,,,,10,2,42,1,457.68940660000226,458.6896054000026,458.6896054000026,458.6896054000026,458.6896054000026,458.6896054000026,459.68937800000276,459.68937800000276,v,1,0.9430915999982972,480718,001,2022-09-30_07h10.21.682,motor sequence learning,2022.2.2,59.998584034858226,
-150,z,,,,,10,3,43,3,460.65594350000174,461.6563535000023,461.6563535000023,461.6563535000023,461.6563535000023,461.6563535000023,462.6560436,462.6560436,z,1,0.7137955999933183,480718,001,2022-09-30_07h10.21.682,motor sequence learning,2022.2.2,59.998584034858226,
50,c,,,,,11,0,44,2,463.3893839000011,464.38945799999783,464.38945799999783,464.38945799999783,464.38945799999783,464.38945799999783,465.3894378000041,465.3894378000041,c,1,1.9416874000016833,480718,001,2022-09-30_07h10.21.682,motor sequence learning,2022.2.2,59.998584034858226,
-150,z,,,,,11,1,45,3,467.3563778000025,468.3563476999989,468.3563476999989,468.3563476999989,468.3563476999989,468.3563476999989,469.3560587000029,469.3560587000029,z,1,0.7268123000030755,480718,001,2022-09-30_07h10.21.682,motor sequence learning,2022.2.2,59.998584034858226,
-50,x,,,,,11,2,46,0,470.1061785999991,471.1062127000041,471.1062127000041,471.1062127000041,471.1062127000041,471.1062127000041,472.106051200004,472.106051200004,x,1,0.5684216999943601,480718,001,2022-09-30_07h10.21.682,motor sequence learning,2022.2.2,59.998584034858226,
-50,x,,,,,11,3,47,0,472.70620380000037,473.7061509999985,473.7061509999985,473.7061509999985,473.7061509999985,473.7061509999985,474.706067799998,474.706067799998,x,1,0.4622631999955047,480718,001,2022-09-30_07h10.21.682,motor sequence learning,2022.2.2,59.998584034858226,
-50,x,,,,,12,0,48,0,475.189455300002,476.18952379999973,476.18952379999973,476.18952379999973,476.18952379999973,476.18952379999973,477.18976400000247,477.18976400000247,x,1,0.333255099998496,480718,001,2022-09-30_07h10.21.682,motor sequence learning,2022.2.2,59.998584034858226,
150,v,,,,,12,1,49,1,477.5395126000003,478.53956019999896,478.53956019999896,478.53956019999896,478.53956019999896,478.53956019999896,479.53952910000226,479.53952910000226,v,1,0.8908630999940215,480718,001,2022-09-30_07h10.21.682,motor sequence learning,2022.2.2,59.998584034858226,
-50,x,,,,,12,2,50,0,480.4562361999997,481.4562497000006,481.4562497000006,481.4562497000006,481.4562497000006,481.4562497000006,482.456362500001,482.456362500001,x,1,0.6479756999979145,480718,001,2022-09-30_07h10.21.682,motor sequence learning,2022.2.2,59.998584034858226,
150,v,,,,,12,3,51,1,483.1227186000033,484.1229166999983,484.1229166999983,484.1229166999983,484.1229166999983,484.1229166999983,485.12275729999965,485.12275729999965,v,1,0.4420500999985961,480718,001,2022-09-30_07h10.21.682,motor sequence learning,2022.2.2,59.998584034858226,
50,c,,,,,13,0,52,2,485.5894657000026,486.5898806000041,486.5898806000041,486.5898806000041,486.5898806000041,486.5898806000041,487.58954950000043,487.58954950000043,c,1,1.0986467000038829,480718,001,2022-09-30_07h10.21.682,motor sequence learning,2022.2.2,59.998584034858226,
150,v,,,,,13,1,53,1,488.7060625000013,489.70640090000234,489.70640090000234,489.70640090000234,489.70640090000234,489.70640090000234,490.7062533999997,490.7062533999997,z,0,0.6369071999943117,480718,001,2022-09-30_07h10.21.682,motor sequence learning,2022.2.2,59.998584034858226,
50,c,,,,,13,2,54,2,491.37275899999804,492.3731553000034,492.3731553000034,492.3731553000034,492.3731553000034,492.3731553000034,493.37286409999797,493.37286409999797,c,1,0.7741391000017757,480718,001,2022-09-30_07h10.21.682,motor sequence learning,2022.2.2,59.998584034858226,
-50,x,,,,,13,3,55,0,494.17276510000374,495.17322190000414,495.17322190000414,495.17322190000414,495.17322190000414,495.17322190000414,496.17297020000115,496.17297020000115,x,1,0.7307060000021011,480718,001,2022-09-30_07h10.21.682,motor sequence learning,2022.2.2,59.998584034858226,
-150,z,,,,,14,0,56,3,496.9228532999987,497.92339789999824,497.92339789999824,497.92339789999824,497.92339789999824,497.92339789999824,498.9228202000013,498.9228202000013,z,1,0.760254900000291,480718,001,2022-09-30_07h10.21.682,motor sequence learning,2022.2.2,59.998584034858226,
-50,x,,,,,14,1,57,0,499.7062322999991,500.70631429999776,500.70631429999776,500.70631429999776,500.70631429999776,500.70631429999776,501.7064986999976,501.7064986999976,x,1,0.7786373999915668,480718,001,2022-09-30_07h10.21.682,motor sequence learning,2022.2.2,59.998584034858226,
-150,z,,,,,14,2,58,3,502.50628960000176,503.50639790000423,503.50639790000423,503.50639790000423,503.50639790000423,503.50639790000423,504.50858940000035,504.50858940000035,z,1,0.6753355000037118,480718,001,2022-09-30_07h10.21.682,motor sequence learning,2022.2.2,59.998584034858226,
50,c,,,,,14,3,59,2,505.2063081000015,506.20644130000437,506.20644130000437,506.20644130000437,506.20644130000437,506.20644130000437,507.20640590000403,507.20640590000403,c,1,0.7667540999973426,480718,001,2022-09-30_07h10.21.682,motor sequence learning,2022.2.2,59.998584034858226,
150,v,,,,,15,0,60,1,507.9896254999985,508.9896385000029,508.9896385000029,508.9896385000029,508.9896385000029,508.9896385000029,509.9896002000023,509.9896002000023,v,1,0.8483320000013919,480718,001,2022-09-30_07h10.21.682,motor sequence learning,2022.2.2,59.998584034858226,
150,v,,,,,15,1,61,1,510.8563262000025,511.8563968000017,511.8563968000017,511.8563968000017,511.8563968000017,511.8563968000017,512.8561401999978,512.8561401999978,v,1,0.7366581999958726,480718,001,2022-09-30_07h10.21.682,motor sequence learning,2022.2.2,59.998584034858226,
150,v,,,,,15,2,62,1,513.622976300001,514.623582799999,514.623582799999,514.623582799999,514.623582799999,514.623582799999,515.6231052000003,515.6231052000003,v,1,0.8360136000046623,480718,001,2022-09-30_07h10.21.682,motor sequence learning,2022.2.2,59.998584034858226,
-150,z,,,,,15,3,63,3,516.4896633000026,517.4898805999983,517.4898805999983,517.4898805999983,517.4898805999983,517.4898805999983,518.4898098999984,518.4898098999984,z,1,0.7845038000014029,480718,001,2022-09-30_07h10.21.682,motor sequence learning,2022.2.2,59.998584034858226,
150,v,,,,,16,0,64,1,519.306181699998,520.3063817000002,520.3063817000002,520.3063817000002,520.3063817000002,520.3063817000002,521.3063452999995,521.3063452999995,v,1,0.618749299996125,480718,001,2022-09-30_07h10.21.682,motor sequence learning,2022.2.2,59.998584034858226,
150,v,,,,,16,1,65,1,521.9561984000029,522.956592100003,522.956592100003,522.956592100003,522.956592100003,522.956592100003,523.9564556999976,523.9564556999976,v,1,0.6598299000033876,480718,001,2022-09-30_07h10.21.682,motor sequence learning,2022.2.2,59.998584034858226,
50,c,,,,,16,2,66,2,524.6397371999992,525.6399399000002,525.6399399000002,525.6399399000002,525.6399399000002,525.6399399000002,526.6395984999981,526.6395984999981,c,1,1.0467216999968514,480718,001,2022-09-30_07h10.21.682,motor sequence learning,2022.2.2,59.998584034858226,
50,c,,,,,16,3,67,2,527.7063062000016,528.7065359000044,528.7065359000044,528.7065359000044,528.7065359000044,528.7065359000044,529.7064697000023,529.7064697000023,c,1,1.5292556999993394,480718,001,2022-09-30_07h10.21.682,motor sequence learning,2022.2.2,59.998584034858226,
150,v,,,,,17,0,68,1,531.2564440999995,532.2565619000015,532.2565619000015,532.2565619000015,532.2565619000015,532.2565619000015,533.2564423000003,533.2564423000003,v,1,0.8306005999984336,480718,001,2022-09-30_07h10.21.682,motor sequence learning,2022.2.2,59.998584034858226,
150,v,,,,,17,1,69,1,534.1063515999995,535.1064211999983,535.1064211999983,535.1064211999983,535.1064211999983,535.1064211999983,536.1063399999985,536.1063399999985,v,1,0.7001227999935509,480718,001,2022-09-30_07h10.21.682,motor sequence learning,2022.2.2,59.998584034858226,
150,v,,,,,17,2,70,1,536.8231390000001,537.8232597000024,537.8232597000024,537.8232597000024,537.8232597000024,537.8232597000024,538.8231478000016,538.8231478000016,v,1,0.6739408999928855,480718,001,2022-09-30_07h10.21.682,motor sequence learning,2022.2.2,59.998584034858226,
-50,x,,,,,17,3,71,0,539.5229128999999,540.5232764000029,540.5232764000029,540.5232764000029,540.5232764000029,540.5232764000029,541.5231474000029,541.5231474000029,x,1,0.7156010999970022,480718,001,2022-09-30_07h10.21.682,motor sequence learning,2022.2.2,59.998584034858226,
150,v,,,,,18,0,72,1,542.2563241000025,543.2565749999994,543.2565749999994,543.2565749999994,543.2565749999994,543.2565749999994,544.256440600002,544.256440600002,v,1,0.6921358999970835,480718,001,2022-09-30_07h10.21.682,motor sequence learning,2022.2.2,59.998584034858226,
150,v,,,,,18,1,73,1,544.9729491000035,545.9732894000044,545.9732894000044,545.9732894000044,545.9732894000044,545.9732894000044,546.973170600002,546.973170600002,v,1,0.7097264999974868,480718,001,2022-09-30_07h10.21.682,motor sequence learning,2022.2.2,59.998584034858226,
50,c,,,,,18,2,74,2,547.7062989000042,548.7067219000019,548.7067219000019,548.7067219000019,548.7067219000019,548.7067219000019,549.7063211999994,549.7063211999994,c,1,0.6774480999956722,480718,001,2022-09-30_07h10.21.682,motor sequence learning,2022.2.2,59.998584034858226,
-50,x,,,,,18,3,75,0,550.4062382999982,551.4064973999994,551.4064973999994,551.4064973999994,551.4064973999994,551.4064973999994,552.4063829000006,552.4063829000006,x,1,0.7356912000032025,480718,001,2022-09-30_07h10.21.682,motor sequence learning,2022.2.2,59.998584034858226,
150,v,,,,,19,0,76,1,553.1732943000025,554.1733185999983,554.1733185999983,554.1733185999983,554.1733185999983,554.1733185999983,555.1731015999976,555.1731015999976,v,1,0.7655299999969429,480718,001,2022-09-30_07h10.21.682,motor sequence learning,2022.2.2,59.998584034858226,
-150,z,,,,,19,1,77,3,555.9565617999979,556.9564481999987,556.9564481999987,556.9564481999987,556.9564481999987,556.9564481999987,557.9565137000027,557.9565137000027,z,1,0.7895685999974376,480718,001,2022-09-30_07h10.21.682,motor sequence learning,2022.2.2,59.998584034858226,
-150,z,,,,,19,2,78,3,558.7732713000005,559.7732065000018,559.7732065000018,559.7732065000018,559.7732065000018,559.7732065000018,560.7732370000012,560.7732370000012,z,1,0.7009267000030377,480718,001,2022-09-30_07h10.21.682,motor sequence learning,2022.2.2,59.998584034858226,
-50,x,,,,,19,3,79,0,561.5064008000045,562.5064815000005,562.5064815000005,562.5064815000005,562.5064815000005,562.5064815000005,563.506581200003,563.506581200003,x,1,0.7568836999998894,480718,001,2022-09-30_07h10.21.682,motor sequence learning,2022.2.2,59.998584034858226,
-50,x,,,,,20,0,80,0,564.2897402000017,565.2897863000035,565.2897863000035,565.2897863000035,565.2897863000035,565.2897863000035,566.2897155000028,566.2897155000028,x,1,0.5812607999978354,480718,001,2022-09-30_07h10.21.682,motor sequence learning,2022.2.2,59.998584034858226,
150,v,,,,,20,1,81,1,566.8897241000013,567.8901167000004,567.8901167000004,567.8901167000004,567.8901167000004,567.8901167000004,568.8898736999981,568.8898736999981,v,1,0.7885106999965501,480718,001,2022-09-30_07h10.21.682,motor sequence learning,2022.2.2,59.998584034858226,
-50,x,,,,,20,2,82,0,569.7063874000014,570.7066897000041,570.7066897000041,570.7066897000041,570.7066897000041,570.7066897000041,571.7065269000013,571.7065269000013,x,1,0.6732780999955139,480718,001,2022-09-30_07h10.21.682,motor sequence learning,2022.2.2,59.998584034858226,
150,v,,,,,20,3,83,1,572.4065443,573.4065975999983,573.4065975999983,573.4065975999983,573.4065975999983,573.4065975999983,574.4065281000003,574.4065281000003,v,1,0.8035328000041773,480718,001,2022-09-30_07h10.21.682,motor sequence learning,2022.2.2,59.998584034858226,
50,c,,,,,21,0,84,2,575.2398412000039,576.2399643000026,576.2399643000026,576.2399643000026,576.2399643000026,576.2399643000026,577.2397666000033,577.2397666000033,c,1,0.726466399995843,480718,001,2022-09-30_07h10.21.682,motor sequence learning,2022.2.2,59.998584034858226,
150,v,,,,,21,1,85,1,577.9898257000023,578.9901037000018,578.9901037000018,578.9901037000018,578.9901037000018,578.9901037000018,579.9898547999983,579.9898547999983,v,1,0.7336399999912828,480718,001,2022-09-30_07h10.21.682,motor sequence learning,2022.2.2,59.998584034858226,
50,c,,,,,21,2,86,2,580.7399051000029,581.7401608,581.7401608,581.7401608,581.7401608,581.7401608,582.7399430000005,582.7399430000005,c,1,0.7164425999944797,480718,001,2022-09-30_07h10.21.682,motor sequence learning,2022.2.2,59.998584034858226,
150,v,,,,,21,3,87,1,583.4730858000039,584.4734186999995,584.4734186999995,584.4734186999995,584.4734186999995,584.4734186999995,585.4732390999998,585.4732390999998,v,1,0.7132250999929965,480718,001,2022-09-30_07h10.21.682,motor sequence learning,2022.2.2,59.998584034858226,
-150,z,,,,,22,0,88,3,586.2066857000027,587.2067069000041,587.2067069000041,587.2067069000041,587.2067069000041,587.2067069000041,588.2064814999976,588.2064814999976,z,1,0.7308950000006007,480718,001,2022-09-30_07h10.21.682,motor sequence learning,2022.2.2,59.998584034858226,
50,c,,,,,22,1,89,2,588.9565579000046,589.956637299998,589.956637299998,589.956637299998,589.956637299998,589.956637299998,590.9564817999999,590.9564817999999,c,1,0.9152369999937946,480718,001,2022-09-30_07h10.21.682,motor sequence learning,2022.2.2,59.998584034858226,
-50,x,,,,,22,2,90,0,591.8898983000036,592.890060800004,592.890060800004,592.890060800004,592.890060800004,592.890060800004,593.8901590000023,593.8901590000023,x,1,0.7136592000024393,480718,001,2022-09-30_07h10.21.682,motor sequence learning,2022.2.2,59.998584034858226,
150,v,,,,,22,3,91,1,594.6232921000046,595.6234311000007,595.6234311000007,595.6234311000007,595.6234311000007,595.6234311000007,596.6231973000031,596.6231973000031,v,1,0.7756016999992426,480718,001,2022-09-30_07h10.21.682,motor sequence learning,2022.2.2,59.998584034858226,
-150,z,,,,,23,0,92,3,597.4232181999978,598.4233420000019,598.4233420000019,598.4233420000019,598.4233420000019,598.4233420000019,599.4232669000048,599.4232669000048,z,1,0.7433050999970874,480718,001,2022-09-30_07h10.21.682,motor sequence learning,2022.2.2,59.998584034858226,
50,c,,,,,23,1,93,2,600.1897031999979,601.190119400002,601.190119400002,601.190119400002,601.190119400002,601.190119400002,602.1898551999984,602.1898551999984,c,1,1.4257924999983516,480718,001,2022-09-30_07h10.21.682,motor sequence learning,2022.2.2,59.998584034858226,
-150,z,,,,,23,2,94,3,603.6398007000025,604.6401600000027,604.6401600000027,604.6401600000027,604.6401600000027,604.6401600000027,605.6399796999976,605.6399796999976,z,1,0.513847900001565,480718,001,2022-09-30_07h10.21.682,motor sequence learning,2022.2.2,59.998584034858226,
50,c,,,,,23,3,95,2,606.1731932000039,607.1735157000003,607.1735157000003,607.1735157000003,607.1735157000003,607.1735157000003,608.1733437000003,608.1733437000003,c,1,0.6501945999989402,480718,001,2022-09-30_07h10.21.682,motor sequence learning,2022.2.2,59.998584034858226,
